,Unnamed: 0,trial,keyChoice,choice,outcome,block,trialsInBlock,blockTrialNumber,totalPoints,rewardProbChoice,rewardProbFractal1,rewardProbFractal2,rewardProbFractal3,decisionTime,record_id,projectId,%Correct,%NoResponse,win_stay_lose_switch,win_stay_percent,lose_stay_percent,lose_switch_percent,win_switch_percent,volatility,%Correct_low_vol,%NoResponse_lowvol,%Correct_high_vol,%NoResponse_highvol,fractalselected,fractal2HGF,fractal1HGF,fractal3HGF
0,0,1,2.0,2.0,1.0,1,24,1,0,0.15,0.85,0.15,0.5,2544,60,604,57.30769230769231,0.3846153846153846,Na,41.53846153846154,17.692307692307693,24.615384615384617,15.0,low,55.38461538461539,,,,2.0,1.0,,
1,1,2,3.0,2.0,0.0,1,24,2,10,0.15,0.85,0.15,0.5,1031,60,604,57.30769230769231,0.3846153846153846,win-stay,41.53846153846154,17.692307692307693,24.615384615384617,15.0,low,55.38461538461539,,,,2.0,0.0,,
2,2,3,3.0,1.0,1.0,1,24,3,12,0.85,0.85,0.15,0.5,1487,60,604,57.30769230769231,0.3846153846153846,lose-switch,41.53846153846154,17.692307692307693,24.615384615384617,15.0,low,55.38461538461539,,,,1.0,,1.0,
3,3,4,3.0,2.0,0.0,1,24,4,22,0.15,0.85,0.15,0.5,870,60,604,57.30769230769231,0.3846153846153846,win-switch,41.53846153846154,17.692307692307693,24.615384615384617,15.0,low,55.38461538461539,,,,2.0,0.0,,
4,4,5,3.0,1.0,1.0,1,24,5,24,0.85,0.85,0.15,0.5,837,60,604,57.30769230769231,0.3846153846153846,lose-switch,41.53846153846154,17.692307692307693,24.615384615384617,15.0,low,55.38461538461539,,,,1.0,,1.0,
5,5,6,2.0,2.0,0.0,1,24,6,34,0.15,0.85,0.15,0.5,1691,60,604,57.30769230769231,0.3846153846153846,win-switch,41.53846153846154,17.692307692307693,24.615384615384617,15.0,low,55.38461538461539,,,,2.0,0.0,,
6,6,7,3.0,3.0,1.0,1,24,7,36,0.5,0.85,0.15,0.5,741,60,604,57.30769230769231,0.3846153846153846,lose-switch,41.53846153846154,17.692307692307693,24.615384615384617,15.0,low,55.38461538461539,,,,3.0,,,1.0
7,7,8,1.0,1.0,1.0,1,24,8,46,0.85,0.85,0.15,0.5,872,60,604,57.30769230769231,0.3846153846153846,win-switch,41.53846153846154,17.692307692307693,24.615384615384617,15.0,low,55.38461538461539,,,,1.0,,1.0,
8,8,9,2.0,1.0,1.0,1,24,9,56,0.85,0.85,0.15,0.5,647,60,604,57.30769230769231,0.3846153846153846,win-stay,41.53846153846154,17.692307692307693,24.615384615384617,15.0,low,55.38461538461539,,,,1.0,,1.0,
9,9,10,1.0,1.0,0.0,1,24,10,66,0.85,0.85,0.15,0.5,695,60,604,57.30769230769231,0.3846153846153846,win-stay,41.53846153846154,17.692307692307693,24.615384615384617,15.0,low,55.38461538461539,,,,1.0,,0.0,
10,10,11,1.0,1.0,1.0,1,24,11,68,0.85,0.85,0.15,0.5,893,60,604,57.30769230769231,0.3846153846153846,lose-stay,41.53846153846154,17.692307692307693,24.615384615384617,15.0,low,55.38461538461539,,,,1.0,,1.0,
11,11,12,2.0,1.0,1.0,1,24,12,78,0.85,0.85,0.15,0.5,635,60,604,57.30769230769231,0.3846153846153846,win-stay,41.53846153846154,17.692307692307693,24.615384615384617,15.0,low,55.38461538461539,,,,1.0,,1.0,
12,12,13,1.0,1.0,1.0,1,24,13,88,0.85,0.85,0.15,0.5,767,60,604,57.30769230769231,0.3846153846153846,win-stay,41.53846153846154,17.692307692307693,24.615384615384617,15.0,low,55.38461538461539,,,,1.0,,1.0,
13,13,14,3.0,1.0,1.0,1,24,14,98,0.85,0.85,0.15,0.5,684,60,604,57.30769230769231,0.3846153846153846,win-stay,41.53846153846154,17.692307692307693,24.615384615384617,15.0,low,55.38461538461539,,,,1.0,,1.0,
14,14,15,3.0,1.0,0.0,1,24,15,108,0.85,0.85,0.15,0.5,702,60,604,57.30769230769231,0.3846153846153846,win-stay,41.53846153846154,17.692307692307693,24.615384615384617,15.0,low,55.38461538461539,,,,1.0,,0.0,
15,15,16,1.0,1.0,1.0,1,24,16,110,0.85,0.85,0.15,0.5,403,60,604,57.30769230769231,0.3846153846153846,lose-stay,41.53846153846154,17.692307692307693,24.615384615384617,15.0,low,55.38461538461539,,,,1.0,,1.0,
16,16,17,2.0,3.0,1.0,1,24,17,120,0.5,0.85,0.15,0.5,410,60,604,57.30769230769231,0.3846153846153846,win-switch,41.53846153846154,17.692307692307693,24.615384615384617,15.0,low,55.38461538461539,,,,3.0,,,1.0
17,17,18,1.0,1.0,1.0,1,24,18,130,0.85,0.85,0.15,0.5,437,60,604,57.30769230769231,0.3846153846153846,win-switch,41.53846153846154,17.692307692307693,24.615384615384617,15.0,low,55.38461538461539,,,,1.0,,1.0,
18,18,19,3.0,1.0,1.0,1,24,19,140,0.85,0.85,0.15,0.5,757,60,604,57.30769230769231,0.3846153846153846,win-stay,41.53846153846154,17.692307692307693,24.615384615384617,15.0,low,55.38461538461539,,,,1.0,,1.0,
19,19,20,2.0,2.0,0.0,1,24,20,150,0.15,0.85,0.15,0.5,563,60,604,57.30769230769231,0.3846153846153846,win-switch,41.53846153846154,17.692307692307693,24.615384615384617,15.0,low,55.38461538461539,,,,2.0,0.0,,
20,20,21,3.0,1.0,1.0,1,24,21,152,0.85,0.85,0.15,0.5,446,60,604,57.30769230769231,0.3846153846153846,lose-switch,41.53846153846154,17.692307692307693,24.615384615384617,15.0,low,55.38461538461539,,,,1.0,,1.0,
21,21,22,1.0,1.0,1.0,1,24,22,162,0.85,0.85,0.15,0.5,409,60,604,57.30769230769231,0.3846153846153846,win-stay,41.53846153846154,17.692307692307693,24.615384615384617,15.0,low,55.38461538461539,,,,1.0,,1.0,
22,22,23,1.0,1.0,1.0,1,24,23,172,0.85,0.85,0.15,0.5,435,60,604,57.30769230769231,0.3846153846153846,win-stay,41.53846153846154,17.692307692307693,24.615384615384617,15.0,low,55.38461538461539,,,,1.0,,1.0,
23,23,24,2.0,1.0,1.0,1,24,24,182,0.85,0.85,0.15,0.5,556,60,604,57.30769230769231,0.3846153846153846,win-stay,41.53846153846154,17.692307692307693,24.615384615384617,15.0,low,55.38461538461539,,,,1.0,,1.0,
24,24,25,1.0,1.0,0.0,2,22,1,192,0.15,0.15,0.85,0.5,687,60,604,57.30769230769231,0.3846153846153846,win-switch,41.53846153846154,17.692307692307693,24.615384615384617,15.0,low,55.38461538461539,,,,1.0,,0.0,
25,25,26,3.0,1.0,0.0,2,22,2,194,0.15,0.15,0.85,0.5,958,60,604,57.30769230769231,0.3846153846153846,lose-stay,41.53846153846154,17.692307692307693,24.615384615384617,15.0,low,55.38461538461539,,,,1.0,,0.0,
26,26,27,3.0,1.0,1.0,2,22,3,196,0.15,0.15,0.85,0.5,724,60,604,57.30769230769231,0.3846153846153846,lose-stay,41.53846153846154,17.692307692307693,24.615384615384617,15.0,low,55.38461538461539,,,,1.0,,1.0,
27,27,28,2.0,1.0,1.0,2,22,4,206,0.15,0.15,0.85,0.5,643,60,604,57.30769230769231,0.3846153846153846,win-stay,41.53846153846154,17.692307692307693,24.615384615384617,15.0,low,55.38461538461539,,,,1.0,,1.0,
28,28,29,1.0,3.0,1.0,2,22,5,216,0.5,0.15,0.85,0.5,812,60,604,57.30769230769231,0.3846153846153846,win-switch,41.53846153846154,17.692307692307693,24.615384615384617,15.0,low,55.38461538461539,,,,3.0,,,1.0
29,29,30,1.0,1.0,0.0,2,22,6,226,0.15,0.15,0.85,0.5,647,60,604,57.30769230769231,0.3846153846153846,win-switch,41.53846153846154,17.692307692307693,24.615384615384617,15.0,low,55.38461538461539,,,,1.0,,0.0,
30,30,31,1.0,3.0,0.0,2,22,7,228,0.5,0.15,0.85,0.5,681,60,604,57.30769230769231,0.3846153846153846,lose-switch,41.53846153846154,17.692307692307693,24.615384615384617,15.0,low,55.38461538461539,,,,3.0,,,0.0
31,31,32,1.0,1.0,0.0,2,22,8,230,0.15,0.15,0.85,0.5,429,60,604,57.30769230769231,0.3846153846153846,lose-switch,41.53846153846154,17.692307692307693,24.615384615384617,15.0,low,55.38461538461539,,,,1.0,,0.0,
32,32,33,2.0,3.0,0.0,2,22,9,232,0.5,0.15,0.85,0.5,471,60,604,57.30769230769231,0.3846153846153846,lose-switch,41.53846153846154,17.692307692307693,24.615384615384617,15.0,low,55.38461538461539,,,,3.0,,,0.0
33,33,34,2.0,2.0,1.0,2,22,10,234,0.85,0.15,0.85,0.5,543,60,604,57.30769230769231,0.3846153846153846,lose-switch,41.53846153846154,17.692307692307693,24.615384615384617,15.0,low,55.38461538461539,,,,2.0,1.0,,
34,34,35,1.0,3.0,0.0,2,22,11,244,0.5,0.15,0.85,0.5,313,60,604,57.30769230769231,0.3846153846153846,win-switch,41.53846153846154,17.692307692307693,24.615384615384617,15.0,low,55.38461538461539,,,,3.0,,,0.0
35,35,36,3.0,2.0,1.0,2,22,12,246,0.85,0.15,0.85,0.5,516,60,604,57.30769230769231,0.3846153846153846,lose-switch,41.53846153846154,17.692307692307693,24.615384615384617,15.0,low,55.38461538461539,,,,2.0,1.0,,
36,36,37,3.0,2.0,1.0,2,22,13,256,0.85,0.15,0.85,0.5,413,60,604,57.30769230769231,0.3846153846153846,win-stay,41.53846153846154,17.692307692307693,24.615384615384617,15.0,low,55.38461538461539,,,,2.0,1.0,,
37,37,38,1.0,2.0,1.0,2,22,14,266,0.85,0.15,0.85,0.5,492,60,604,57.30769230769231,0.3846153846153846,win-stay,41.53846153846154,17.692307692307693,24.615384615384617,15.0,low,55.38461538461539,,,,2.0,1.0,,
38,38,39,1.0,2.0,1.0,2,22,15,276,0.85,0.15,0.85,0.5,508,60,604,57.30769230769231,0.3846153846153846,win-stay,41.53846153846154,17.692307692307693,24.615384615384617,15.0,low,55.38461538461539,,,,2.0,1.0,,
39,39,40,1.0,1.0,0.0,2,22,16,286,0.15,0.15,0.85,0.5,524,60,604,57.30769230769231,0.3846153846153846,win-switch,41.53846153846154,17.692307692307693,24.615384615384617,15.0,low,55.38461538461539,,,,1.0,,0.0,
40,40,41,1.0,2.0,1.0,2,22,17,288,0.85,0.15,0.85,0.5,665,60,604,57.30769230769231,0.3846153846153846,lose-switch,41.53846153846154,17.692307692307693,24.615384615384617,15.0,low,55.38461538461539,,,,2.0,1.0,,
41,41,42,3.0,2.0,1.0,2,22,18,298,0.85,0.15,0.85,0.5,503,60,604,57.30769230769231,0.3846153846153846,win-stay,41.53846153846154,17.692307692307693,24.615384615384617,15.0,low,55.38461538461539,,,,2.0,1.0,,
42,42,43,2.0,2.0,1.0,2,22,19,308,0.85,0.15,0.85,0.5,508,60,604,57.30769230769231,0.3846153846153846,win-stay,41.53846153846154,17.692307692307693,24.615384615384617,15.0,low,55.38461538461539,,,,2.0,1.0,,
43,43,44,3.0,2.0,0.0,2,22,20,318,0.85,0.15,0.85,0.5,530,60,604,57.30769230769231,0.3846153846153846,win-stay,41.53846153846154,17.692307692307693,24.615384615384617,15.0,low,55.38461538461539,,,,2.0,0.0,,
44,44,45,2.0,2.0,1.0,2,22,21,320,0.85,0.15,0.85,0.5,426,60,604,57.30769230769231,0.3846153846153846,lose-stay,41.53846153846154,17.692307692307693,24.615384615384617,15.0,low,55.38461538461539,,,,2.0,1.0,,
45,45,46,2.0,2.0,1.0,2,22,22,330,0.85,0.15,0.85,0.5,430,60,604,57.30769230769231,0.3846153846153846,win-stay,41.53846153846154,17.692307692307693,24.615384615384617,15.0,low,55.38461538461539,,,,2.0,1.0,,
46,46,47,2.0,2.0,0.0,3,32,1,340,0.15,0.85,0.15,0.5,445,60,604,57.30769230769231,0.3846153846153846,win-switch,41.53846153846154,17.692307692307693,24.615384615384617,15.0,low,55.38461538461539,,,,2.0,0.0,,
47,47,48,3.0,2.0,0.0,3,32,2,342,0.15,0.85,0.15,0.5,532,60,604,57.30769230769231,0.3846153846153846,lose-stay,41.53846153846154,17.692307692307693,24.615384615384617,15.0,low,55.38461538461539,,,,2.0,0.0,,
48,48,49,1.0,2.0,0.0,3,32,3,344,0.15,0.85,0.15,0.5,400,60,604,57.30769230769231,0.3846153846153846,lose-stay,41.53846153846154,17.692307692307693,24.615384615384617,15.0,low,55.38461538461539,,,,2.0,0.0,,
49,49,50,3.0,2.0,0.0,3,32,4,346,0.15,0.85,0.15,0.5,503,60,604,57.30769230769231,0.3846153846153846,lose-stay,41.53846153846154,17.692307692307693,24.615384615384617,15.0,low,55.38461538461539,,,,2.0,0.0,,
50,50,51,2.0,2.0,0.0,3,32,5,348,0.15,0.85,0.15,0.5,743,60,604,57.30769230769231,0.3846153846153846,lose-stay,41.53846153846154,17.692307692307693,24.615384615384617,15.0,low,55.38461538461539,,,,2.0,0.0,,
51,51,52,2.0,2.0,0.0,3,32,6,350,0.15,0.85,0.15,0.5,445,60,604,57.30769230769231,0.3846153846153846,lose-stay,41.53846153846154,17.692307692307693,24.615384615384617,15.0,low,55.38461538461539,,,,2.0,0.0,,
52,52,53,3.0,2.0,0.0,3,32,7,352,0.15,0.85,0.15,0.5,412,60,604,57.30769230769231,0.3846153846153846,lose-stay,41.53846153846154,17.692307692307693,24.615384615384617,15.0,low,55.38461538461539,,,,2.0,0.0,,
53,53,54,2.0,3.0,1.0,3,32,8,354,0.5,0.85,0.15,0.5,470,60,604,57.30769230769231,0.3846153846153846,lose-switch,41.53846153846154,17.692307692307693,24.615384615384617,15.0,low,55.38461538461539,,,,3.0,,,1.0
54,54,55,3.0,3.0,1.0,3,32,9,364,0.5,0.85,0.15,0.5,636,60,604,57.30769230769231,0.3846153846153846,win-stay,41.53846153846154,17.692307692307693,24.615384615384617,15.0,low,55.38461538461539,,,,3.0,,,1.0
55,55,56,1.0,3.0,0.0,3,32,10,374,0.5,0.85,0.15,0.5,551,60,604,57.30769230769231,0.3846153846153846,win-stay,41.53846153846154,17.692307692307693,24.615384615384617,15.0,low,55.38461538461539,,,,3.0,,,0.0
56,56,57,2.0,1.0,1.0,3,32,11,376,0.85,0.85,0.15,0.5,467,60,604,57.30769230769231,0.3846153846153846,lose-switch,41.53846153846154,17.692307692307693,24.615384615384617,15.0,low,55.38461538461539,,,,1.0,,1.0,
57,57,58,3.0,1.0,1.0,3,32,12,386,0.85,0.85,0.15,0.5,459,60,604,57.30769230769231,0.3846153846153846,win-stay,41.53846153846154,17.692307692307693,24.615384615384617,15.0,low,55.38461538461539,,,,1.0,,1.0,
58,58,59,2.0,1.0,0.0,3,32,13,396,0.85,0.85,0.15,0.5,469,60,604,57.30769230769231,0.3846153846153846,win-stay,41.53846153846154,17.692307692307693,24.615384615384617,15.0,low,55.38461538461539,,,,1.0,,0.0,
59,59,60,3.0,3.0,1.0,3,32,14,398,0.5,0.85,0.15,0.5,507,60,604,57.30769230769231,0.3846153846153846,lose-switch,41.53846153846154,17.692307692307693,24.615384615384617,15.0,low,55.38461538461539,,,,3.0,,,1.0
60,60,61,3.0,1.0,1.0,3,32,15,408,0.85,0.85,0.15,0.5,847,60,604,57.30769230769231,0.3846153846153846,win-switch,41.53846153846154,17.692307692307693,24.615384615384617,15.0,low,55.38461538461539,,,,1.0,,1.0,
61,61,62,3.0,1.0,1.0,3,32,16,418,0.85,0.85,0.15,0.5,659,60,604,57.30769230769231,0.3846153846153846,win-stay,41.53846153846154,17.692307692307693,24.615384615384617,15.0,low,55.38461538461539,,,,1.0,,1.0,
62,62,63,1.0,1.0,1.0,3,32,17,428,0.85,0.85,0.15,0.5,577,60,604,57.30769230769231,0.3846153846153846,win-stay,41.53846153846154,17.692307692307693,24.615384615384617,15.0,low,55.38461538461539,,,,1.0,,1.0,
63,63,64,3.0,1.0,1.0,3,32,18,438,0.85,0.85,0.15,0.5,1120,60,604,57.30769230769231,0.3846153846153846,win-stay,41.53846153846154,17.692307692307693,24.615384615384617,15.0,low,55.38461538461539,,,,1.0,,1.0,
64,64,65,1.0,1.0,1.0,3,32,19,448,0.85,0.85,0.15,0.5,755,60,604,57.30769230769231,0.3846153846153846,win-stay,41.53846153846154,17.692307692307693,24.615384615384617,15.0,low,55.38461538461539,,,,1.0,,1.0,
65,65,66,1.0,1.0,0.0,3,32,20,458,0.85,0.85,0.15,0.5,557,60,604,57.30769230769231,0.3846153846153846,win-stay,41.53846153846154,17.692307692307693,24.615384615384617,15.0,low,55.38461538461539,,,,1.0,,0.0,
66,66,67,1.0,2.0,0.0,3,32,21,460,0.15,0.85,0.15,0.5,802,60,604,57.30769230769231,0.3846153846153846,lose-switch,41.53846153846154,17.692307692307693,24.615384615384617,15.0,low,55.38461538461539,,,,2.0,0.0,,
67,67,68,1.0,3.0,1.0,3,32,22,462,0.5,0.85,0.15,0.5,600,60,604,57.30769230769231,0.3846153846153846,lose-switch,41.53846153846154,17.692307692307693,24.615384615384617,15.0,low,55.38461538461539,,,,3.0,,,1.0
68,68,69,3.0,3.0,0.0,3,32,23,472,0.5,0.85,0.15,0.5,586,60,604,57.30769230769231,0.3846153846153846,win-stay,41.53846153846154,17.692307692307693,24.615384615384617,15.0,low,55.38461538461539,,,,3.0,,,0.0
69,69,70,1.0,1.0,1.0,3,32,24,474,0.85,0.85,0.15,0.5,587,60,604,57.30769230769231,0.3846153846153846,lose-switch,41.53846153846154,17.692307692307693,24.615384615384617,15.0,low,55.38461538461539,,,,1.0,,1.0,
70,70,71,1.0,1.0,1.0,3,32,25,484,0.85,0.85,0.15,0.5,436,60,604,57.30769230769231,0.3846153846153846,win-stay,41.53846153846154,17.692307692307693,24.615384615384617,15.0,low,55.38461538461539,,,,1.0,,1.0,
71,71,72,1.0,1.0,0.0,3,32,26,494,0.85,0.85,0.15,0.5,443,60,604,57.30769230769231,0.3846153846153846,win-stay,41.53846153846154,17.692307692307693,24.615384615384617,15.0,low,55.38461538461539,,,,1.0,,0.0,
72,72,73,3.0,1.0,0.0,3,32,27,496,0.85,0.85,0.15,0.5,448,60,604,57.30769230769231,0.3846153846153846,lose-stay,41.53846153846154,17.692307692307693,24.615384615384617,15.0,low,55.38461538461539,,,,1.0,,0.0,
73,73,74,2.0,1.0,1.0,3,32,28,498,0.85,0.85,0.15,0.5,242,60,604,57.30769230769231,0.3846153846153846,lose-stay,41.53846153846154,17.692307692307693,24.615384615384617,15.0,low,55.38461538461539,,,,1.0,,1.0,
74,74,75,1.0,1.0,1.0,3,32,29,508,0.85,0.85,0.15,0.5,458,60,604,57.30769230769231,0.3846153846153846,win-stay,41.53846153846154,17.692307692307693,24.615384615384617,15.0,low,55.38461538461539,,,,1.0,,1.0,
75,75,76,3.0,1.0,1.0,3,32,30,518,0.85,0.85,0.15,0.5,393,60,604,57.30769230769231,0.3846153846153846,win-stay,41.53846153846154,17.692307692307693,24.615384615384617,15.0,low,55.38461538461539,,,,1.0,,1.0,
76,76,77,2.0,1.0,1.0,3,32,31,528,0.85,0.85,0.15,0.5,490,60,604,57.30769230769231,0.3846153846153846,win-stay,41.53846153846154,17.692307692307693,24.615384615384617,15.0,low,55.38461538461539,,,,1.0,,1.0,
77,77,78,2.0,1.0,1.0,3,32,32,538,0.85,0.85,0.15,0.5,821,60,604,57.30769230769231,0.3846153846153846,win-stay,41.53846153846154,17.692307692307693,24.615384615384617,15.0,low,55.38461538461539,,,,1.0,,1.0,
78,78,79,2.0,1.0,0.0,4,25,1,548,0.15,0.15,0.85,0.5,507,60,604,57.30769230769231,0.3846153846153846,win-switch,41.53846153846154,17.692307692307693,24.615384615384617,15.0,low,55.38461538461539,,,,1.0,,0.0,
79,79,80,3.0,1.0,0.0,4,25,2,550,0.15,0.15,0.85,0.5,839,60,604,57.30769230769231,0.3846153846153846,lose-stay,41.53846153846154,17.692307692307693,24.615384615384617,15.0,low,55.38461538461539,,,,1.0,,0.0,
80,80,81,3.0,1.0,1.0,4,25,3,552,0.15,0.15,0.85,0.5,559,60,604,57.30769230769231,0.3846153846153846,lose-stay,41.53846153846154,17.692307692307693,24.615384615384617,15.0,low,55.38461538461539,,,,1.0,,1.0,
81,81,82,1.0,1.0,0.0,4,25,4,562,0.15,0.15,0.85,0.5,669,60,604,57.30769230769231,0.3846153846153846,win-stay,41.53846153846154,17.692307692307693,24.615384615384617,15.0,low,55.38461538461539,,,,1.0,,0.0,
82,82,83,3.0,1.0,0.0,4,25,5,564,0.15,0.15,0.85,0.5,1027,60,604,57.30769230769231,0.3846153846153846,lose-stay,41.53846153846154,17.692307692307693,24.615384615384617,15.0,low,55.38461538461539,,,,1.0,,0.0,
83,83,84,2.0,1.0,0.0,4,25,6,566,0.15,0.15,0.85,0.5,1080,60,604,57.30769230769231,0.3846153846153846,lose-stay,41.53846153846154,17.692307692307693,24.615384615384617,15.0,low,55.38461538461539,,,,1.0,,0.0,
84,84,85,2.0,1.0,0.0,4,25,7,568,0.15,0.15,0.85,0.5,525,60,604,57.30769230769231,0.3846153846153846,lose-stay,41.53846153846154,17.692307692307693,24.615384615384617,15.0,low,55.38461538461539,,,,1.0,,0.0,
85,85,86,2.0,1.0,0.0,4,25,8,570,0.15,0.15,0.85,0.5,837,60,604,57.30769230769231,0.3846153846153846,lose-stay,41.53846153846154,17.692307692307693,24.615384615384617,15.0,low,55.38461538461539,,,,1.0,,0.0,
86,86,87,1.0,1.0,0.0,4,25,9,572,0.15,0.15,0.85,0.5,1803,60,604,57.30769230769231,0.3846153846153846,lose-stay,41.53846153846154,17.692307692307693,24.615384615384617,15.0,low,55.38461538461539,,,,1.0,,0.0,
87,87,88,3.0,1.0,0.0,4,25,10,574,0.15,0.15,0.85,0.5,1583,60,604,57.30769230769231,0.3846153846153846,lose-stay,41.53846153846154,17.692307692307693,24.615384615384617,15.0,low,55.38461538461539,,,,1.0,,0.0,
88,88,89,2.0,2.0,1.0,4,25,11,576,0.85,0.15,0.85,0.5,345,60,604,57.30769230769231,0.3846153846153846,lose-switch,41.53846153846154,17.692307692307693,24.615384615384617,15.0,low,55.38461538461539,,,,2.0,1.0,,
89,89,90,1.0,1.0,0.0,4,25,12,586,0.15,0.15,0.85,0.5,542,60,604,57.30769230769231,0.3846153846153846,win-switch,41.53846153846154,17.692307692307693,24.615384615384617,15.0,low,55.38461538461539,,,,1.0,,0.0,
90,90,91,2.0,1.0,0.0,4,25,13,588,0.15,0.15,0.85,0.5,441,60,604,57.30769230769231,0.3846153846153846,lose-stay,41.53846153846154,17.692307692307693,24.615384615384617,15.0,low,55.38461538461539,,,,1.0,,0.0,
91,91,92,3.0,2.0,1.0,4,25,14,590,0.85,0.15,0.85,0.5,368,60,604,57.30769230769231,0.3846153846153846,lose-switch,41.53846153846154,17.692307692307693,24.615384615384617,15.0,low,55.38461538461539,,,,2.0,1.0,,
92,92,93,3.0,2.0,0.0,4,25,15,600,0.85,0.15,0.85,0.5,686,60,604,57.30769230769231,0.3846153846153846,win-stay,41.53846153846154,17.692307692307693,24.615384615384617,15.0,low,55.38461538461539,,,,2.0,0.0,,
93,93,94,3.0,2.0,1.0,4,25,16,602,0.85,0.15,0.85,0.5,549,60,604,57.30769230769231,0.3846153846153846,lose-stay,41.53846153846154,17.692307692307693,24.615384615384617,15.0,low,55.38461538461539,,,,2.0,1.0,,
94,94,95,1.0,2.0,1.0,4,25,17,612,0.85,0.15,0.85,0.5,421,60,604,57.30769230769231,0.3846153846153846,win-stay,41.53846153846154,17.692307692307693,24.615384615384617,15.0,low,55.38461538461539,,,,2.0,1.0,,
95,95,96,2.0,2.0,0.0,4,25,18,622,0.85,0.15,0.85,0.5,1266,60,604,57.30769230769231,0.3846153846153846,win-stay,41.53846153846154,17.692307692307693,24.615384615384617,15.0,low,55.38461538461539,,,,2.0,0.0,,
96,96,97,1.0,2.0,0.0,4,25,19,624,0.85,0.15,0.85,0.5,1469,60,604,57.30769230769231,0.3846153846153846,lose-stay,41.53846153846154,17.692307692307693,24.615384615384617,15.0,low,55.38461538461539,,,,2.0,0.0,,
97,97,98,3.0,2.0,0.0,4,25,20,626,0.85,0.15,0.85,0.5,1940,60,604,57.30769230769231,0.3846153846153846,lose-stay,41.53846153846154,17.692307692307693,24.615384615384617,15.0,low,55.38461538461539,,,,2.0,0.0,,
98,98,99,2.0,3.0,1.0,4,25,21,628,0.5,0.15,0.85,0.5,484,60,604,57.30769230769231,0.3846153846153846,lose-switch,41.53846153846154,17.692307692307693,24.615384615384617,15.0,low,55.38461538461539,,,,3.0,,,1.0
99,99,100,1.0,3.0,0.0,4,25,22,638,0.5,0.15,0.85,0.5,568,60,604,57.30769230769231,0.3846153846153846,win-stay,41.53846153846154,17.692307692307693,24.615384615384617,15.0,low,55.38461538461539,,,,3.0,,,0.0
100,100,101,1.0,2.0,1.0,4,25,23,640,0.85,0.15,0.85,0.5,558,60,604,57.30769230769231,0.3846153846153846,lose-switch,41.53846153846154,17.692307692307693,24.615384615384617,15.0,low,55.38461538461539,,,,2.0,1.0,,
101,101,102,3.0,2.0,1.0,4,25,24,650,0.85,0.15,0.85,0.5,402,60,604,57.30769230769231,0.3846153846153846,win-stay,41.53846153846154,17.692307692307693,24.615384615384617,15.0,low,55.38461538461539,,,,2.0,1.0,,
102,102,103,1.0,2.0,1.0,4,25,25,660,0.85,0.15,0.85,0.5,583,60,604,57.30769230769231,0.3846153846153846,win-stay,41.53846153846154,17.692307692307693,24.615384615384617,15.0,low,55.38461538461539,,,,2.0,1.0,,
103,103,104,2.0,2.0,0.0,5,27,1,670,0.15,0.85,0.15,0.5,577,60,604,57.30769230769231,0.3846153846153846,win-switch,41.53846153846154,17.692307692307693,24.615384615384617,15.0,low,55.38461538461539,,,,2.0,0.0,,
104,104,105,2.0,2.0,0.0,5,27,2,672,0.15,0.85,0.15,0.5,459,60,604,57.30769230769231,0.3846153846153846,lose-stay,41.53846153846154,17.692307692307693,24.615384615384617,15.0,low,55.38461538461539,,,,2.0,0.0,,
105,105,106,1.0,3.0,0.0,5,27,3,674,0.5,0.85,0.15,0.5,662,60,604,57.30769230769231,0.3846153846153846,lose-switch,41.53846153846154,17.692307692307693,24.615384615384617,15.0,low,55.38461538461539,,,,3.0,,,0.0
106,106,107,3.0,3.0,0.0,5,27,4,676,0.5,0.85,0.15,0.5,465,60,604,57.30769230769231,0.3846153846153846,lose-stay,41.53846153846154,17.692307692307693,24.615384615384617,15.0,low,55.38461538461539,,,,3.0,,,0.0
107,107,108,1.0,1.0,1.0,5,27,5,678,0.85,0.85,0.15,0.5,611,60,604,57.30769230769231,0.3846153846153846,lose-switch,41.53846153846154,17.692307692307693,24.615384615384617,15.0,low,55.38461538461539,,,,1.0,,1.0,
108,108,109,3.0,1.0,0.0,5,27,6,688,0.85,0.85,0.15,0.5,613,60,604,57.30769230769231,0.3846153846153846,win-stay,41.53846153846154,17.692307692307693,24.615384615384617,15.0,low,55.38461538461539,,,,1.0,,0.0,
109,109,110,2.0,1.0,1.0,5,27,7,690,0.85,0.85,0.15,0.5,523,60,604,57.30769230769231,0.3846153846153846,lose-stay,41.53846153846154,17.692307692307693,24.615384615384617,15.0,low,55.38461538461539,,,,1.0,,1.0,
110,110,111,1.0,1.0,1.0,5,27,8,700,0.85,0.85,0.15,0.5,801,60,604,57.30769230769231,0.3846153846153846,win-stay,41.53846153846154,17.692307692307693,24.615384615384617,15.0,low,55.38461538461539,,,,1.0,,1.0,
111,111,112,1.0,1.0,1.0,5,27,9,710,0.85,0.85,0.15,0.5,1228,60,604,57.30769230769231,0.3846153846153846,win-stay,41.53846153846154,17.692307692307693,24.615384615384617,15.0,low,55.38461538461539,,,,1.0,,1.0,
112,112,113,3.0,1.0,1.0,5,27,10,720,0.85,0.85,0.15,0.5,1209,60,604,57.30769230769231,0.3846153846153846,win-stay,41.53846153846154,17.692307692307693,24.615384615384617,15.0,low,55.38461538461539,,,,1.0,,1.0,
113,113,114,3.0,2.0,0.0,5,27,11,730,0.15,0.85,0.15,0.5,1227,60,604,57.30769230769231,0.3846153846153846,win-switch,41.53846153846154,17.692307692307693,24.615384615384617,15.0,low,55.38461538461539,,,,2.0,0.0,,
114,114,115,1.0,3.0,0.0,5,27,12,732,0.5,0.85,0.15,0.5,519,60,604,57.30769230769231,0.3846153846153846,lose-switch,41.53846153846154,17.692307692307693,24.615384615384617,15.0,low,55.38461538461539,,,,3.0,,,0.0
115,115,116,2.0,2.0,0.0,5,27,13,734,0.15,0.85,0.15,0.5,451,60,604,57.30769230769231,0.3846153846153846,lose-switch,41.53846153846154,17.692307692307693,24.615384615384617,15.0,low,55.38461538461539,,,,2.0,0.0,,
116,116,117,2.0,2.0,0.0,5,27,14,736,0.15,0.85,0.15,0.5,726,60,604,57.30769230769231,0.3846153846153846,lose-stay,41.53846153846154,17.692307692307693,24.615384615384617,15.0,low,55.38461538461539,,,,2.0,0.0,,
117,117,118,3.0,3.0,0.0,5,27,15,738,0.5,0.85,0.15,0.5,480,60,604,57.30769230769231,0.3846153846153846,lose-switch,41.53846153846154,17.692307692307693,24.615384615384617,15.0,low,55.38461538461539,,,,3.0,,,0.0
118,118,119,3.0,1.0,1.0,5,27,16,740,0.85,0.85,0.15,0.5,415,60,604,57.30769230769231,0.3846153846153846,lose-switch,41.53846153846154,17.692307692307693,24.615384615384617,15.0,low,55.38461538461539,,,,1.0,,1.0,
119,119,120,2.0,1.0,1.0,5,27,17,750,0.85,0.85,0.15,0.5,527,60,604,57.30769230769231,0.3846153846153846,win-stay,41.53846153846154,17.692307692307693,24.615384615384617,15.0,low,55.38461538461539,,,,1.0,,1.0,
120,120,121,3.0,1.0,1.0,5,27,18,760,0.85,0.85,0.15,0.5,429,60,604,57.30769230769231,0.3846153846153846,win-stay,41.53846153846154,17.692307692307693,24.615384615384617,15.0,low,55.38461538461539,,,,1.0,,1.0,
121,121,122,2.0,1.0,0.0,5,27,19,770,0.85,0.85,0.15,0.5,797,60,604,57.30769230769231,0.3846153846153846,win-stay,41.53846153846154,17.692307692307693,24.615384615384617,15.0,low,55.38461538461539,,,,1.0,,0.0,
122,122,123,3.0,1.0,1.0,5,27,20,772,0.85,0.85,0.15,0.5,632,60,604,57.30769230769231,0.3846153846153846,lose-stay,41.53846153846154,17.692307692307693,24.615384615384617,15.0,low,55.38461538461539,,,,1.0,,1.0,
123,123,124,2.0,1.0,0.0,5,27,21,782,0.85,0.85,0.15,0.5,941,60,604,57.30769230769231,0.3846153846153846,win-stay,41.53846153846154,17.692307692307693,24.615384615384617,15.0,low,55.38461538461539,,,,1.0,,0.0,
124,124,125,1.0,1.0,0.0,5,27,22,784,0.85,0.85,0.15,0.5,917,60,604,57.30769230769231,0.3846153846153846,lose-stay,41.53846153846154,17.692307692307693,24.615384615384617,15.0,low,55.38461538461539,,,,1.0,,0.0,
125,125,126,3.0,2.0,0.0,5,27,23,786,0.15,0.85,0.15,0.5,364,60,604,57.30769230769231,0.3846153846153846,lose-switch,41.53846153846154,17.692307692307693,24.615384615384617,15.0,low,55.38461538461539,,,,2.0,0.0,,
126,126,127,3.0,3.0,0.0,5,27,24,788,0.5,0.85,0.15,0.5,540,60,604,57.30769230769231,0.3846153846153846,lose-switch,41.53846153846154,17.692307692307693,24.615384615384617,15.0,low,55.38461538461539,,,,3.0,,,0.0
127,127,128,1.0,1.0,0.0,5,27,25,790,0.85,0.85,0.15,0.5,466,60,604,57.30769230769231,0.3846153846153846,lose-switch,41.53846153846154,17.692307692307693,24.615384615384617,15.0,low,55.38461538461539,,,,1.0,,0.0,
128,128,129,2.0,3.0,0.0,5,27,26,792,0.5,0.85,0.15,0.5,264,60,604,57.30769230769231,0.3846153846153846,lose-switch,41.53846153846154,17.692307692307693,24.615384615384617,15.0,low,55.38461538461539,,,,3.0,,,0.0
129,129,130,3.0,1.0,1.0,5,27,27,794,0.85,0.85,0.15,0.5,233,60,604,57.30769230769231,0.3846153846153846,lose-switch,41.53846153846154,17.692307692307693,24.615384615384617,15.0,low,55.38461538461539,,,,1.0,,1.0,
130,130,1,2.0,2.0,0.0,1,23,1,0,0.15,0.85,0.15,0.5,1126,84,604,66.15384615384615,,Na,62.30769230769231,1.153846153846154,33.07692307692307,3.076923076923077,low,64.61538461538461,,,,2.0,0.0,,
131,131,2,3.0,2.0,0.0,1,23,2,2,0.15,0.85,0.15,0.5,2844,84,604,66.15384615384615,,lose-stay,62.30769230769231,1.153846153846154,33.07692307692307,3.076923076923077,low,64.61538461538461,,,,2.0,0.0,,
132,132,3,3.0,1.0,1.0,1,23,3,4,0.85,0.85,0.15,0.5,2233,84,604,66.15384615384615,,lose-switch,62.30769230769231,1.153846153846154,33.07692307692307,3.076923076923077,low,64.61538461538461,,,,1.0,,1.0,
133,133,4,3.0,1.0,1.0,1,23,4,14,0.85,0.85,0.15,0.5,928,84,604,66.15384615384615,,win-stay,62.30769230769231,1.153846153846154,33.07692307692307,3.076923076923077,low,64.61538461538461,,,,1.0,,1.0,
134,134,5,2.0,1.0,1.0,1,23,5,24,0.85,0.85,0.15,0.5,720,84,604,66.15384615384615,,win-stay,62.30769230769231,1.153846153846154,33.07692307692307,3.076923076923077,low,64.61538461538461,,,,1.0,,1.0,
135,135,6,3.0,1.0,1.0,1,23,6,34,0.85,0.85,0.15,0.5,825,84,604,66.15384615384615,,win-stay,62.30769230769231,1.153846153846154,33.07692307692307,3.076923076923077,low,64.61538461538461,,,,1.0,,1.0,
136,136,7,2.0,1.0,1.0,1,23,7,44,0.85,0.85,0.15,0.5,900,84,604,66.15384615384615,,win-stay,62.30769230769231,1.153846153846154,33.07692307692307,3.076923076923077,low,64.61538461538461,,,,1.0,,1.0,
137,137,8,3.0,1.0,1.0,1,23,8,54,0.85,0.85,0.15,0.5,674,84,604,66.15384615384615,,win-stay,62.30769230769231,1.153846153846154,33.07692307692307,3.076923076923077,low,64.61538461538461,,,,1.0,,1.0,
138,138,9,1.0,1.0,1.0,1,23,9,64,0.85,0.85,0.15,0.5,582,84,604,66.15384615384615,,win-stay,62.30769230769231,1.153846153846154,33.07692307692307,3.076923076923077,low,64.61538461538461,,,,1.0,,1.0,
139,139,10,1.0,1.0,0.0,1,23,10,74,0.85,0.85,0.15,0.5,603,84,604,66.15384615384615,,win-stay,62.30769230769231,1.153846153846154,33.07692307692307,3.076923076923077,low,64.61538461538461,,,,1.0,,0.0,
140,140,11,1.0,2.0,0.0,1,23,11,76,0.15,0.85,0.15,0.5,1530,84,604,66.15384615384615,,lose-switch,62.30769230769231,1.153846153846154,33.07692307692307,3.076923076923077,low,64.61538461538461,,,,2.0,0.0,,
141,141,12,2.0,2.0,0.0,1,23,12,78,0.15,0.85,0.15,0.5,794,84,604,66.15384615384615,,lose-stay,62.30769230769231,1.153846153846154,33.07692307692307,3.076923076923077,low,64.61538461538461,,,,2.0,0.0,,
142,142,13,1.0,3.0,1.0,1,23,13,80,0.5,0.85,0.15,0.5,1575,84,604,66.15384615384615,,lose-switch,62.30769230769231,1.153846153846154,33.07692307692307,3.076923076923077,low,64.61538461538461,,,,3.0,,,1.0
143,143,14,2.0,3.0,1.0,1,23,14,90,0.5,0.85,0.15,0.5,794,84,604,66.15384615384615,,win-stay,62.30769230769231,1.153846153846154,33.07692307692307,3.076923076923077,low,64.61538461538461,,,,3.0,,,1.0
144,144,15,2.0,3.0,0.0,1,23,15,100,0.5,0.85,0.15,0.5,643,84,604,66.15384615384615,,win-stay,62.30769230769231,1.153846153846154,33.07692307692307,3.076923076923077,low,64.61538461538461,,,,3.0,,,0.0
145,145,16,3.0,2.0,0.0,1,23,16,102,0.15,0.85,0.15,0.5,735,84,604,66.15384615384615,,lose-switch,62.30769230769231,1.153846153846154,33.07692307692307,3.076923076923077,low,64.61538461538461,,,,2.0,0.0,,
146,146,17,2.0,1.0,1.0,1,23,17,104,0.85,0.85,0.15,0.5,748,84,604,66.15384615384615,,lose-switch,62.30769230769231,1.153846153846154,33.07692307692307,3.076923076923077,low,64.61538461538461,,,,1.0,,1.0,
147,147,18,2.0,1.0,1.0,1,23,18,114,0.85,0.85,0.15,0.5,811,84,604,66.15384615384615,,win-stay,62.30769230769231,1.153846153846154,33.07692307692307,3.076923076923077,low,64.61538461538461,,,,1.0,,1.0,
148,148,19,2.0,1.0,1.0,1,23,19,124,0.85,0.85,0.15,0.5,494,84,604,66.15384615384615,,win-stay,62.30769230769231,1.153846153846154,33.07692307692307,3.076923076923077,low,64.61538461538461,,,,1.0,,1.0,
149,149,20,3.0,1.0,1.0,1,23,20,134,0.85,0.85,0.15,0.5,630,84,604,66.15384615384615,,win-stay,62.30769230769231,1.153846153846154,33.07692307692307,3.076923076923077,low,64.61538461538461,,,,1.0,,1.0,
150,150,21,2.0,1.0,1.0,1,23,21,144,0.85,0.85,0.15,0.5,553,84,604,66.15384615384615,,win-stay,62.30769230769231,1.153846153846154,33.07692307692307,3.076923076923077,low,64.61538461538461,,,,1.0,,1.0,
151,151,22,2.0,1.0,1.0,1,23,22,154,0.85,0.85,0.15,0.5,511,84,604,66.15384615384615,,win-stay,62.30769230769231,1.153846153846154,33.07692307692307,3.076923076923077,low,64.61538461538461,,,,1.0,,1.0,
152,152,23,3.0,1.0,1.0,1,23,23,164,0.85,0.85,0.15,0.5,599,84,604,66.15384615384615,,win-stay,62.30769230769231,1.153846153846154,33.07692307692307,3.076923076923077,low,64.61538461538461,,,,1.0,,1.0,
153,153,24,2.0,1.0,0.0,2,23,1,174,0.15,0.15,0.85,0.5,420,84,604,66.15384615384615,,win-switch,62.30769230769231,1.153846153846154,33.07692307692307,3.076923076923077,low,64.61538461538461,,,,1.0,,0.0,
154,154,25,3.0,2.0,1.0,2,23,2,176,0.85,0.15,0.85,0.5,599,84,604,66.15384615384615,,lose-switch,62.30769230769231,1.153846153846154,33.07692307692307,3.076923076923077,low,64.61538461538461,,,,2.0,1.0,,
155,155,26,3.0,2.0,1.0,2,23,3,186,0.85,0.15,0.85,0.5,497,84,604,66.15384615384615,,win-stay,62.30769230769231,1.153846153846154,33.07692307692307,3.076923076923077,low,64.61538461538461,,,,2.0,1.0,,
156,156,27,1.0,2.0,1.0,2,23,4,196,0.85,0.15,0.85,0.5,569,84,604,66.15384615384615,,win-stay,62.30769230769231,1.153846153846154,33.07692307692307,3.076923076923077,low,64.61538461538461,,,,2.0,1.0,,
157,157,28,2.0,2.0,0.0,2,23,5,206,0.85,0.15,0.85,0.5,464,84,604,66.15384615384615,,win-stay,62.30769230769231,1.153846153846154,33.07692307692307,3.076923076923077,low,64.61538461538461,,,,2.0,0.0,,
158,158,29,3.0,3.0,1.0,2,23,6,208,0.5,0.15,0.85,0.5,899,84,604,66.15384615384615,,lose-switch,62.30769230769231,1.153846153846154,33.07692307692307,3.076923076923077,low,64.61538461538461,,,,3.0,,,1.0
159,159,30,1.0,3.0,1.0,2,23,7,218,0.5,0.15,0.85,0.5,671,84,604,66.15384615384615,,win-stay,62.30769230769231,1.153846153846154,33.07692307692307,3.076923076923077,low,64.61538461538461,,,,3.0,,,1.0
160,160,31,2.0,3.0,1.0,2,23,8,228,0.5,0.15,0.85,0.5,466,84,604,66.15384615384615,,win-stay,62.30769230769231,1.153846153846154,33.07692307692307,3.076923076923077,low,64.61538461538461,,,,3.0,,,1.0
161,161,32,3.0,3.0,0.0,2,23,9,238,0.5,0.15,0.85,0.5,825,84,604,66.15384615384615,,win-stay,62.30769230769231,1.153846153846154,33.07692307692307,3.076923076923077,low,64.61538461538461,,,,3.0,,,0.0
162,162,33,2.0,2.0,1.0,2,23,10,240,0.85,0.15,0.85,0.5,735,84,604,66.15384615384615,,lose-switch,62.30769230769231,1.153846153846154,33.07692307692307,3.076923076923077,low,64.61538461538461,,,,2.0,1.0,,
163,163,34,2.0,2.0,1.0,2,23,11,250,0.85,0.15,0.85,0.5,420,84,604,66.15384615384615,,win-stay,62.30769230769231,1.153846153846154,33.07692307692307,3.076923076923077,low,64.61538461538461,,,,2.0,1.0,,
164,164,35,1.0,2.0,1.0,2,23,12,260,0.85,0.15,0.85,0.5,690,84,604,66.15384615384615,,win-stay,62.30769230769231,1.153846153846154,33.07692307692307,3.076923076923077,low,64.61538461538461,,,,2.0,1.0,,
165,165,36,2.0,2.0,1.0,2,23,13,270,0.85,0.15,0.85,0.5,508,84,604,66.15384615384615,,win-stay,62.30769230769231,1.153846153846154,33.07692307692307,3.076923076923077,low,64.61538461538461,,,,2.0,1.0,,
166,166,37,2.0,2.0,1.0,2,23,14,280,0.85,0.15,0.85,0.5,376,84,604,66.15384615384615,,win-stay,62.30769230769231,1.153846153846154,33.07692307692307,3.076923076923077,low,64.61538461538461,,,,2.0,1.0,,
167,167,38,3.0,2.0,0.0,2,23,15,290,0.85,0.15,0.85,0.5,511,84,604,66.15384615384615,,win-stay,62.30769230769231,1.153846153846154,33.07692307692307,3.076923076923077,low,64.61538461538461,,,,2.0,0.0,,
168,168,39,3.0,1.0,0.0,2,23,16,292,0.15,0.15,0.85,0.5,542,84,604,66.15384615384615,,lose-switch,62.30769230769231,1.153846153846154,33.07692307692307,3.076923076923077,low,64.61538461538461,,,,1.0,,0.0,
169,169,40,1.0,3.0,1.0,2,23,17,294,0.5,0.15,0.85,0.5,898,84,604,66.15384615384615,,lose-switch,62.30769230769231,1.153846153846154,33.07692307692307,3.076923076923077,low,64.61538461538461,,,,3.0,,,1.0
170,170,41,2.0,3.0,1.0,2,23,18,304,0.5,0.15,0.85,0.5,570,84,604,66.15384615384615,,win-stay,62.30769230769231,1.153846153846154,33.07692307692307,3.076923076923077,low,64.61538461538461,,,,3.0,,,1.0
171,171,42,3.0,3.0,1.0,2,23,19,314,0.5,0.15,0.85,0.5,598,84,604,66.15384615384615,,win-stay,62.30769230769231,1.153846153846154,33.07692307692307,3.076923076923077,low,64.61538461538461,,,,3.0,,,1.0
172,172,43,3.0,3.0,0.0,2,23,20,324,0.5,0.15,0.85,0.5,554,84,604,66.15384615384615,,win-stay,62.30769230769231,1.153846153846154,33.07692307692307,3.076923076923077,low,64.61538461538461,,,,3.0,,,0.0
173,173,44,2.0,2.0,1.0,2,23,21,326,0.85,0.15,0.85,0.5,840,84,604,66.15384615384615,,lose-switch,62.30769230769231,1.153846153846154,33.07692307692307,3.076923076923077,low,64.61538461538461,,,,2.0,1.0,,
174,174,45,1.0,2.0,1.0,2,23,22,336,0.85,0.15,0.85,0.5,659,84,604,66.15384615384615,,win-stay,62.30769230769231,1.153846153846154,33.07692307692307,3.076923076923077,low,64.61538461538461,,,,2.0,1.0,,
175,175,46,1.0,2.0,1.0,2,23,23,346,0.85,0.15,0.85,0.5,482,84,604,66.15384615384615,,win-stay,62.30769230769231,1.153846153846154,33.07692307692307,3.076923076923077,low,64.61538461538461,,,,2.0,1.0,,
176,176,47,3.0,2.0,0.0,3,25,1,356,0.15,0.85,0.15,0.5,567,84,604,66.15384615384615,,win-switch,62.30769230769231,1.153846153846154,33.07692307692307,3.076923076923077,low,64.61538461538461,,,,2.0,0.0,,
177,177,48,2.0,3.0,0.0,3,25,2,358,0.5,0.85,0.15,0.5,1349,84,604,66.15384615384615,,lose-switch,62.30769230769231,1.153846153846154,33.07692307692307,3.076923076923077,low,64.61538461538461,,,,3.0,,,0.0
178,178,49,2.0,1.0,1.0,3,25,3,360,0.85,0.85,0.15,0.5,616,84,604,66.15384615384615,,lose-switch,62.30769230769231,1.153846153846154,33.07692307692307,3.076923076923077,low,64.61538461538461,,,,1.0,,1.0,
179,179,50,1.0,1.0,1.0,3,25,4,370,0.85,0.85,0.15,0.5,570,84,604,66.15384615384615,,win-stay,62.30769230769231,1.153846153846154,33.07692307692307,3.076923076923077,low,64.61538461538461,,,,1.0,,1.0,
180,180,51,1.0,1.0,1.0,3,25,5,380,0.85,0.85,0.15,0.5,793,84,604,66.15384615384615,,win-stay,62.30769230769231,1.153846153846154,33.07692307692307,3.076923076923077,low,64.61538461538461,,,,1.0,,1.0,
181,181,52,1.0,1.0,1.0,3,25,6,390,0.85,0.85,0.15,0.5,584,84,604,66.15384615384615,,win-stay,62.30769230769231,1.153846153846154,33.07692307692307,3.076923076923077,low,64.61538461538461,,,,1.0,,1.0,
182,182,53,1.0,1.0,0.0,3,25,7,400,0.85,0.85,0.15,0.5,464,84,604,66.15384615384615,,win-stay,62.30769230769231,1.153846153846154,33.07692307692307,3.076923076923077,low,64.61538461538461,,,,1.0,,0.0,
183,183,54,1.0,2.0,1.0,3,25,8,402,0.15,0.85,0.15,0.5,1215,84,604,66.15384615384615,,lose-switch,62.30769230769231,1.153846153846154,33.07692307692307,3.076923076923077,low,64.61538461538461,,,,2.0,1.0,,
184,184,55,3.0,2.0,1.0,3,25,9,412,0.15,0.85,0.15,0.5,509,84,604,66.15384615384615,,win-stay,62.30769230769231,1.153846153846154,33.07692307692307,3.076923076923077,low,64.61538461538461,,,,2.0,1.0,,
185,185,56,2.0,2.0,0.0,3,25,10,422,0.15,0.85,0.15,0.5,540,84,604,66.15384615384615,,win-stay,62.30769230769231,1.153846153846154,33.07692307692307,3.076923076923077,low,64.61538461538461,,,,2.0,0.0,,
186,186,57,2.0,1.0,1.0,3,25,11,424,0.85,0.85,0.15,0.5,584,84,604,66.15384615384615,,lose-switch,62.30769230769231,1.153846153846154,33.07692307692307,3.076923076923077,low,64.61538461538461,,,,1.0,,1.0,
187,187,58,1.0,1.0,1.0,3,25,12,434,0.85,0.85,0.15,0.5,599,84,604,66.15384615384615,,win-stay,62.30769230769231,1.153846153846154,33.07692307692307,3.076923076923077,low,64.61538461538461,,,,1.0,,1.0,
188,188,59,3.0,1.0,0.0,3,25,13,444,0.85,0.85,0.15,0.5,601,84,604,66.15384615384615,,win-stay,62.30769230769231,1.153846153846154,33.07692307692307,3.076923076923077,low,64.61538461538461,,,,1.0,,0.0,
189,189,60,2.0,3.0,0.0,3,25,14,446,0.5,0.85,0.15,0.5,764,84,604,66.15384615384615,,lose-switch,62.30769230769231,1.153846153846154,33.07692307692307,3.076923076923077,low,64.61538461538461,,,,3.0,,,0.0
190,190,61,3.0,2.0,1.0,3,25,15,448,0.15,0.85,0.15,0.5,584,84,604,66.15384615384615,,lose-switch,62.30769230769231,1.153846153846154,33.07692307692307,3.076923076923077,low,64.61538461538461,,,,2.0,1.0,,
191,191,62,2.0,2.0,0.0,3,25,16,458,0.15,0.85,0.15,0.5,509,84,604,66.15384615384615,,win-stay,62.30769230769231,1.153846153846154,33.07692307692307,3.076923076923077,low,64.61538461538461,,,,2.0,0.0,,
192,192,63,2.0,3.0,0.0,3,25,17,460,0.5,0.85,0.15,0.5,1247,84,604,66.15384615384615,,lose-switch,62.30769230769231,1.153846153846154,33.07692307692307,3.076923076923077,low,64.61538461538461,,,,3.0,,,0.0
193,193,64,2.0,1.0,1.0,3,25,18,462,0.85,0.85,0.15,0.5,523,84,604,66.15384615384615,,lose-switch,62.30769230769231,1.153846153846154,33.07692307692307,3.076923076923077,low,64.61538461538461,,,,1.0,,1.0,
194,194,65,3.0,1.0,1.0,3,25,19,472,0.85,0.85,0.15,0.5,810,84,604,66.15384615384615,,win-stay,62.30769230769231,1.153846153846154,33.07692307692307,3.076923076923077,low,64.61538461538461,,,,1.0,,1.0,
195,195,66,3.0,1.0,1.0,3,25,20,482,0.85,0.85,0.15,0.5,479,84,604,66.15384615384615,,win-stay,62.30769230769231,1.153846153846154,33.07692307692307,3.076923076923077,low,64.61538461538461,,,,1.0,,1.0,
196,196,67,3.0,1.0,1.0,3,25,21,492,0.85,0.85,0.15,0.5,390,84,604,66.15384615384615,,win-stay,62.30769230769231,1.153846153846154,33.07692307692307,3.076923076923077,low,64.61538461538461,,,,1.0,,1.0,
197,197,68,1.0,1.0,1.0,3,25,22,502,0.85,0.85,0.15,0.5,451,84,604,66.15384615384615,,win-stay,62.30769230769231,1.153846153846154,33.07692307692307,3.076923076923077,low,64.61538461538461,,,,1.0,,1.0,
198,198,69,1.0,1.0,1.0,3,25,23,512,0.85,0.85,0.15,0.5,464,84,604,66.15384615384615,,win-stay,62.30769230769231,1.153846153846154,33.07692307692307,3.076923076923077,low,64.61538461538461,,,,1.0,,1.0,
199,199,70,3.0,1.0,0.0,3,25,24,522,0.85,0.85,0.15,0.5,554,84,604,66.15384615384615,,win-stay,62.30769230769231,1.153846153846154,33.07692307692307,3.076923076923077,low,64.61538461538461,,,,1.0,,0.0,
200,200,71,3.0,2.0,0.0,3,25,25,524,0.15,0.85,0.15,0.5,704,84,604,66.15384615384615,,lose-switch,62.30769230769231,1.153846153846154,33.07692307692307,3.076923076923077,low,64.61538461538461,,,,2.0,0.0,,
201,201,72,2.0,3.0,1.0,4,33,1,526,0.5,0.15,0.85,0.5,554,84,604,66.15384615384615,,lose-switch,62.30769230769231,1.153846153846154,33.07692307692307,3.076923076923077,low,64.61538461538461,,,,3.0,,,1.0
202,202,73,1.0,3.0,0.0,4,33,2,536,0.5,0.15,0.85,0.5,766,84,604,66.15384615384615,,win-stay,62.30769230769231,1.153846153846154,33.07692307692307,3.076923076923077,low,64.61538461538461,,,,3.0,,,0.0
203,203,74,1.0,1.0,0.0,4,33,3,538,0.15,0.15,0.85,0.5,810,84,604,66.15384615384615,,lose-switch,62.30769230769231,1.153846153846154,33.07692307692307,3.076923076923077,low,64.61538461538461,,,,1.0,,0.0,
204,204,75,1.0,2.0,1.0,4,33,4,540,0.85,0.15,0.85,0.5,705,84,604,66.15384615384615,,lose-switch,62.30769230769231,1.153846153846154,33.07692307692307,3.076923076923077,low,64.61538461538461,,,,2.0,1.0,,
205,205,76,1.0,2.0,1.0,4,33,5,550,0.85,0.15,0.85,0.5,480,84,604,66.15384615384615,,win-stay,62.30769230769231,1.153846153846154,33.07692307692307,3.076923076923077,low,64.61538461538461,,,,2.0,1.0,,
206,206,77,2.0,2.0,1.0,4,33,6,560,0.85,0.15,0.85,0.5,493,84,604,66.15384615384615,,win-stay,62.30769230769231,1.153846153846154,33.07692307692307,3.076923076923077,low,64.61538461538461,,,,2.0,1.0,,
207,207,78,2.0,2.0,0.0,4,33,7,570,0.85,0.15,0.85,0.5,628,84,604,66.15384615384615,,win-stay,62.30769230769231,1.153846153846154,33.07692307692307,3.076923076923077,low,64.61538461538461,,,,2.0,0.0,,
208,208,79,2.0,1.0,0.0,4,33,8,572,0.15,0.15,0.85,0.5,478,84,604,66.15384615384615,,lose-switch,62.30769230769231,1.153846153846154,33.07692307692307,3.076923076923077,low,64.61538461538461,,,,1.0,,0.0,
209,209,80,3.0,3.0,0.0,4,33,9,574,0.5,0.15,0.85,0.5,885,84,604,66.15384615384615,,lose-switch,62.30769230769231,1.153846153846154,33.07692307692307,3.076923076923077,low,64.61538461538461,,,,3.0,,,0.0
210,210,81,2.0,1.0,0.0,4,33,10,576,0.15,0.15,0.85,0.5,600,84,604,66.15384615384615,,lose-switch,62.30769230769231,1.153846153846154,33.07692307692307,3.076923076923077,low,64.61538461538461,,,,1.0,,0.0,
211,211,82,1.0,2.0,0.0,4,33,11,578,0.85,0.15,0.85,0.5,674,84,604,66.15384615384615,,lose-switch,62.30769230769231,1.153846153846154,33.07692307692307,3.076923076923077,low,64.61538461538461,,,,2.0,0.0,,
212,212,83,1.0,1.0,1.0,4,33,12,580,0.15,0.15,0.85,0.5,630,84,604,66.15384615384615,,lose-switch,62.30769230769231,1.153846153846154,33.07692307692307,3.076923076923077,low,64.61538461538461,,,,1.0,,1.0,
213,213,84,2.0,1.0,0.0,4,33,13,590,0.15,0.15,0.85,0.5,494,84,604,66.15384615384615,,win-stay,62.30769230769231,1.153846153846154,33.07692307692307,3.076923076923077,low,64.61538461538461,,,,1.0,,0.0,
214,214,85,1.0,2.0,1.0,4,33,14,592,0.85,0.15,0.85,0.5,1064,84,604,66.15384615384615,,lose-switch,62.30769230769231,1.153846153846154,33.07692307692307,3.076923076923077,low,64.61538461538461,,,,2.0,1.0,,
215,215,86,1.0,2.0,1.0,4,33,15,602,0.85,0.15,0.85,0.5,539,84,604,66.15384615384615,,win-stay,62.30769230769231,1.153846153846154,33.07692307692307,3.076923076923077,low,64.61538461538461,,,,2.0,1.0,,
216,216,87,2.0,2.0,1.0,4,33,16,612,0.85,0.15,0.85,0.5,464,84,604,66.15384615384615,,win-stay,62.30769230769231,1.153846153846154,33.07692307692307,3.076923076923077,low,64.61538461538461,,,,2.0,1.0,,
217,217,88,3.0,2.0,1.0,4,33,17,622,0.85,0.15,0.85,0.5,526,84,604,66.15384615384615,,win-stay,62.30769230769231,1.153846153846154,33.07692307692307,3.076923076923077,low,64.61538461538461,,,,2.0,1.0,,
218,218,89,2.0,2.0,1.0,4,33,18,632,0.85,0.15,0.85,0.5,465,84,604,66.15384615384615,,win-stay,62.30769230769231,1.153846153846154,33.07692307692307,3.076923076923077,low,64.61538461538461,,,,2.0,1.0,,
219,219,90,3.0,2.0,1.0,4,33,19,642,0.85,0.15,0.85,0.5,540,84,604,66.15384615384615,,win-stay,62.30769230769231,1.153846153846154,33.07692307692307,3.076923076923077,low,64.61538461538461,,,,2.0,1.0,,
220,220,91,1.0,2.0,1.0,4,33,20,652,0.85,0.15,0.85,0.5,509,84,604,66.15384615384615,,win-stay,62.30769230769231,1.153846153846154,33.07692307692307,3.076923076923077,low,64.61538461538461,,,,2.0,1.0,,
221,221,92,3.0,2.0,1.0,4,33,21,662,0.85,0.15,0.85,0.5,437,84,604,66.15384615384615,,win-stay,62.30769230769231,1.153846153846154,33.07692307692307,3.076923076923077,low,64.61538461538461,,,,2.0,1.0,,
222,222,93,1.0,2.0,1.0,4,33,22,672,0.85,0.15,0.85,0.5,467,84,604,66.15384615384615,,win-stay,62.30769230769231,1.153846153846154,33.07692307692307,3.076923076923077,low,64.61538461538461,,,,2.0,1.0,,
223,223,94,1.0,2.0,0.0,4,33,23,682,0.85,0.15,0.85,0.5,539,84,604,66.15384615384615,,win-stay,62.30769230769231,1.153846153846154,33.07692307692307,3.076923076923077,low,64.61538461538461,,,,2.0,0.0,,
224,224,95,2.0,1.0,0.0,4,33,24,684,0.15,0.15,0.85,0.5,404,84,604,66.15384615384615,,lose-switch,62.30769230769231,1.153846153846154,33.07692307692307,3.076923076923077,low,64.61538461538461,,,,1.0,,0.0,
225,225,96,3.0,3.0,1.0,4,33,25,686,0.5,0.15,0.85,0.5,585,84,604,66.15384615384615,,lose-switch,62.30769230769231,1.153846153846154,33.07692307692307,3.076923076923077,low,64.61538461538461,,,,3.0,,,1.0
226,226,97,3.0,3.0,1.0,4,33,26,696,0.5,0.15,0.85,0.5,719,84,604,66.15384615384615,,win-stay,62.30769230769231,1.153846153846154,33.07692307692307,3.076923076923077,low,64.61538461538461,,,,3.0,,,1.0
227,227,98,2.0,3.0,0.0,4,33,27,706,0.5,0.15,0.85,0.5,795,84,604,66.15384615384615,,win-stay,62.30769230769231,1.153846153846154,33.07692307692307,3.076923076923077,low,64.61538461538461,,,,3.0,,,0.0
228,228,99,1.0,1.0,0.0,4,33,28,708,0.15,0.15,0.85,0.5,747,84,604,66.15384615384615,,lose-switch,62.30769230769231,1.153846153846154,33.07692307692307,3.076923076923077,low,64.61538461538461,,,,1.0,,0.0,
229,229,100,1.0,2.0,1.0,4,33,29,710,0.85,0.15,0.85,0.5,602,84,604,66.15384615384615,,lose-switch,62.30769230769231,1.153846153846154,33.07692307692307,3.076923076923077,low,64.61538461538461,,,,2.0,1.0,,
230,230,101,1.0,2.0,1.0,4,33,30,720,0.85,0.15,0.85,0.5,493,84,604,66.15384615384615,,win-stay,62.30769230769231,1.153846153846154,33.07692307692307,3.076923076923077,low,64.61538461538461,,,,2.0,1.0,,
231,231,102,3.0,2.0,1.0,4,33,31,730,0.85,0.15,0.85,0.5,450,84,604,66.15384615384615,,win-stay,62.30769230769231,1.153846153846154,33.07692307692307,3.076923076923077,low,64.61538461538461,,,,2.0,1.0,,
232,232,103,2.0,2.0,1.0,4,33,32,740,0.85,0.15,0.85,0.5,542,84,604,66.15384615384615,,win-stay,62.30769230769231,1.153846153846154,33.07692307692307,3.076923076923077,low,64.61538461538461,,,,2.0,1.0,,
233,233,104,2.0,2.0,1.0,4,33,33,750,0.85,0.15,0.85,0.5,433,84,604,66.15384615384615,,win-stay,62.30769230769231,1.153846153846154,33.07692307692307,3.076923076923077,low,64.61538461538461,,,,2.0,1.0,,
234,234,105,1.0,2.0,0.0,5,26,1,760,0.15,0.85,0.15,0.5,719,84,604,66.15384615384615,,win-switch,62.30769230769231,1.153846153846154,33.07692307692307,3.076923076923077,low,64.61538461538461,,,,2.0,0.0,,
235,235,106,1.0,1.0,1.0,5,26,2,762,0.85,0.85,0.15,0.5,704,84,604,66.15384615384615,,lose-switch,62.30769230769231,1.153846153846154,33.07692307692307,3.076923076923077,low,64.61538461538461,,,,1.0,,1.0,
236,236,107,2.0,1.0,1.0,5,26,3,772,0.85,0.85,0.15,0.5,421,84,604,66.15384615384615,,win-stay,62.30769230769231,1.153846153846154,33.07692307692307,3.076923076923077,low,64.61538461538461,,,,1.0,,1.0,
237,237,108,1.0,1.0,1.0,5,26,4,782,0.85,0.85,0.15,0.5,465,84,604,66.15384615384615,,win-stay,62.30769230769231,1.153846153846154,33.07692307692307,3.076923076923077,low,64.61538461538461,,,,1.0,,1.0,
238,238,109,3.0,1.0,1.0,5,26,5,792,0.85,0.85,0.15,0.5,539,84,604,66.15384615384615,,win-stay,62.30769230769231,1.153846153846154,33.07692307692307,3.076923076923077,low,64.61538461538461,,,,1.0,,1.0,
239,239,110,3.0,1.0,1.0,5,26,6,802,0.85,0.85,0.15,0.5,405,84,604,66.15384615384615,,win-stay,62.30769230769231,1.153846153846154,33.07692307692307,3.076923076923077,low,64.61538461538461,,,,1.0,,1.0,
240,240,111,3.0,1.0,1.0,5,26,7,812,0.85,0.85,0.15,0.5,735,84,604,66.15384615384615,,win-stay,62.30769230769231,1.153846153846154,33.07692307692307,3.076923076923077,low,64.61538461538461,,,,1.0,,1.0,
241,241,112,3.0,1.0,1.0,5,26,8,822,0.85,0.85,0.15,0.5,825,84,604,66.15384615384615,,win-stay,62.30769230769231,1.153846153846154,33.07692307692307,3.076923076923077,low,64.61538461538461,,,,1.0,,1.0,
242,242,113,1.0,1.0,1.0,5,26,9,832,0.85,0.85,0.15,0.5,630,84,604,66.15384615384615,,win-stay,62.30769230769231,1.153846153846154,33.07692307692307,3.076923076923077,low,64.61538461538461,,,,1.0,,1.0,
243,243,114,3.0,1.0,1.0,5,26,10,842,0.85,0.85,0.15,0.5,467,84,604,66.15384615384615,,win-stay,62.30769230769231,1.153846153846154,33.07692307692307,3.076923076923077,low,64.61538461538461,,,,1.0,,1.0,
244,244,115,3.0,1.0,1.0,5,26,11,852,0.85,0.85,0.15,0.5,418,84,604,66.15384615384615,,win-stay,62.30769230769231,1.153846153846154,33.07692307692307,3.076923076923077,low,64.61538461538461,,,,1.0,,1.0,
245,245,116,3.0,1.0,1.0,5,26,12,862,0.85,0.85,0.15,0.5,465,84,604,66.15384615384615,,win-stay,62.30769230769231,1.153846153846154,33.07692307692307,3.076923076923077,low,64.61538461538461,,,,1.0,,1.0,
246,246,117,2.0,1.0,1.0,5,26,13,872,0.85,0.85,0.15,0.5,449,84,604,66.15384615384615,,win-stay,62.30769230769231,1.153846153846154,33.07692307692307,3.076923076923077,low,64.61538461538461,,,,1.0,,1.0,
247,247,118,2.0,1.0,1.0,5,26,14,882,0.85,0.85,0.15,0.5,390,84,604,66.15384615384615,,win-stay,62.30769230769231,1.153846153846154,33.07692307692307,3.076923076923077,low,64.61538461538461,,,,1.0,,1.0,
248,248,119,1.0,1.0,1.0,5,26,15,892,0.85,0.85,0.15,0.5,448,84,604,66.15384615384615,,win-stay,62.30769230769231,1.153846153846154,33.07692307692307,3.076923076923077,low,64.61538461538461,,,,1.0,,1.0,
249,249,120,1.0,1.0,1.0,5,26,16,902,0.85,0.85,0.15,0.5,479,84,604,66.15384615384615,,win-stay,62.30769230769231,1.153846153846154,33.07692307692307,3.076923076923077,low,64.61538461538461,,,,1.0,,1.0,
250,250,121,3.0,1.0,1.0,5,26,17,912,0.85,0.85,0.15,0.5,404,84,604,66.15384615384615,,win-stay,62.30769230769231,1.153846153846154,33.07692307692307,3.076923076923077,low,64.61538461538461,,,,1.0,,1.0,
251,251,122,3.0,1.0,1.0,5,26,18,922,0.85,0.85,0.15,0.5,509,84,604,66.15384615384615,,win-stay,62.30769230769231,1.153846153846154,33.07692307692307,3.076923076923077,low,64.61538461538461,,,,1.0,,1.0,
252,252,123,1.0,1.0,0.0,5,26,19,932,0.85,0.85,0.15,0.5,421,84,604,66.15384615384615,,win-stay,62.30769230769231,1.153846153846154,33.07692307692307,3.076923076923077,low,64.61538461538461,,,,1.0,,0.0,
253,253,124,1.0,2.0,0.0,5,26,20,934,0.15,0.85,0.15,0.5,539,84,604,66.15384615384615,,lose-switch,62.30769230769231,1.153846153846154,33.07692307692307,3.076923076923077,low,64.61538461538461,,,,2.0,0.0,,
254,254,125,2.0,3.0,0.0,5,26,21,936,0.5,0.85,0.15,0.5,824,84,604,66.15384615384615,,lose-switch,62.30769230769231,1.153846153846154,33.07692307692307,3.076923076923077,low,64.61538461538461,,,,3.0,,,0.0
255,255,126,1.0,1.0,1.0,5,26,22,938,0.85,0.85,0.15,0.5,1290,84,604,66.15384615384615,,lose-switch,62.30769230769231,1.153846153846154,33.07692307692307,3.076923076923077,low,64.61538461538461,,,,1.0,,1.0,
256,256,127,1.0,1.0,0.0,5,26,23,948,0.85,0.85,0.15,0.5,450,84,604,66.15384615384615,,win-stay,62.30769230769231,1.153846153846154,33.07692307692307,3.076923076923077,low,64.61538461538461,,,,1.0,,0.0,
257,257,128,3.0,3.0,0.0,5,26,24,950,0.5,0.85,0.15,0.5,824,84,604,66.15384615384615,,lose-switch,62.30769230769231,1.153846153846154,33.07692307692307,3.076923076923077,low,64.61538461538461,,,,3.0,,,0.0
258,258,129,1.0,2.0,0.0,5,26,25,952,0.15,0.85,0.15,0.5,540,84,604,66.15384615384615,,lose-switch,62.30769230769231,1.153846153846154,33.07692307692307,3.076923076923077,low,64.61538461538461,,,,2.0,0.0,,
259,259,130,2.0,1.0,0.0,5,26,26,954,0.85,0.85,0.15,0.5,451,84,604,66.15384615384615,,lose-switch,62.30769230769231,1.153846153846154,33.07692307692307,3.076923076923077,low,64.61538461538461,,,,1.0,,0.0,
260,261,2,2.0,2.0,0.0,1,26,2,0,0.15,0.85,0.15,0.5,898,99,604,51.92307692307693,0.3846153846153846,Na,51.53846153846153,22.692307692307693,18.461538461538463,6.538461538461539,low,59.23076923076923,0.7692307692307693,,,2.0,0.0,,
261,262,3,3.0,1.0,1.0,1,26,3,2,0.85,0.85,0.15,0.5,852,99,604,51.92307692307693,0.3846153846153846,lose-switch,51.53846153846153,22.692307692307693,18.461538461538463,6.538461538461539,low,59.23076923076923,0.7692307692307693,,,1.0,,1.0,
262,263,4,3.0,1.0,1.0,1,26,4,12,0.85,0.85,0.15,0.5,555,99,604,51.92307692307693,0.3846153846153846,win-stay,51.53846153846153,22.692307692307693,18.461538461538463,6.538461538461539,low,59.23076923076923,0.7692307692307693,,,1.0,,1.0,
263,264,5,1.0,1.0,1.0,1,26,5,22,0.85,0.85,0.15,0.5,583,99,604,51.92307692307693,0.3846153846153846,win-stay,51.53846153846153,22.692307692307693,18.461538461538463,6.538461538461539,low,59.23076923076923,0.7692307692307693,,,1.0,,1.0,
264,265,6,1.0,1.0,1.0,1,26,6,32,0.85,0.85,0.15,0.5,561,99,604,51.92307692307693,0.3846153846153846,win-stay,51.53846153846153,22.692307692307693,18.461538461538463,6.538461538461539,low,59.23076923076923,0.7692307692307693,,,1.0,,1.0,
265,266,7,2.0,1.0,1.0,1,26,7,42,0.85,0.85,0.15,0.5,488,99,604,51.92307692307693,0.3846153846153846,win-stay,51.53846153846153,22.692307692307693,18.461538461538463,6.538461538461539,low,59.23076923076923,0.7692307692307693,,,1.0,,1.0,
266,267,8,1.0,1.0,1.0,1,26,8,52,0.85,0.85,0.15,0.5,524,99,604,51.92307692307693,0.3846153846153846,win-stay,51.53846153846153,22.692307692307693,18.461538461538463,6.538461538461539,low,59.23076923076923,0.7692307692307693,,,1.0,,1.0,
267,268,9,2.0,1.0,1.0,1,26,9,62,0.85,0.85,0.15,0.5,477,99,604,51.92307692307693,0.3846153846153846,win-stay,51.53846153846153,22.692307692307693,18.461538461538463,6.538461538461539,low,59.23076923076923,0.7692307692307693,,,1.0,,1.0,
268,269,10,1.0,1.0,1.0,1,26,10,72,0.85,0.85,0.15,0.5,485,99,604,51.92307692307693,0.3846153846153846,win-stay,51.53846153846153,22.692307692307693,18.461538461538463,6.538461538461539,low,59.23076923076923,0.7692307692307693,,,1.0,,1.0,
269,270,11,2.0,1.0,1.0,1,26,11,82,0.85,0.85,0.15,0.5,447,99,604,51.92307692307693,0.3846153846153846,win-stay,51.53846153846153,22.692307692307693,18.461538461538463,6.538461538461539,low,59.23076923076923,0.7692307692307693,,,1.0,,1.0,
270,271,12,1.0,1.0,1.0,1,26,12,92,0.85,0.85,0.15,0.5,492,99,604,51.92307692307693,0.3846153846153846,win-stay,51.53846153846153,22.692307692307693,18.461538461538463,6.538461538461539,low,59.23076923076923,0.7692307692307693,,,1.0,,1.0,
271,272,13,2.0,1.0,1.0,1,26,13,102,0.85,0.85,0.15,0.5,420,99,604,51.92307692307693,0.3846153846153846,win-stay,51.53846153846153,22.692307692307693,18.461538461538463,6.538461538461539,low,59.23076923076923,0.7692307692307693,,,1.0,,1.0,
272,273,14,1.0,1.0,1.0,1,26,14,112,0.85,0.85,0.15,0.5,660,99,604,51.92307692307693,0.3846153846153846,win-stay,51.53846153846153,22.692307692307693,18.461538461538463,6.538461538461539,low,59.23076923076923,0.7692307692307693,,,1.0,,1.0,
273,274,15,1.0,1.0,1.0,1,26,15,122,0.85,0.85,0.15,0.5,485,99,604,51.92307692307693,0.3846153846153846,win-stay,51.53846153846153,22.692307692307693,18.461538461538463,6.538461538461539,low,59.23076923076923,0.7692307692307693,,,1.0,,1.0,
274,275,16,1.0,1.0,1.0,1,26,16,132,0.85,0.85,0.15,0.5,755,99,604,51.92307692307693,0.3846153846153846,win-stay,51.53846153846153,22.692307692307693,18.461538461538463,6.538461538461539,low,59.23076923076923,0.7692307692307693,,,1.0,,1.0,
275,276,17,2.0,1.0,0.0,1,26,17,142,0.85,0.85,0.15,0.5,452,99,604,51.92307692307693,0.3846153846153846,win-stay,51.53846153846153,22.692307692307693,18.461538461538463,6.538461538461539,low,59.23076923076923,0.7692307692307693,,,1.0,,0.0,
276,277,18,1.0,2.0,0.0,1,26,18,144,0.15,0.85,0.15,0.5,797,99,604,51.92307692307693,0.3846153846153846,lose-switch,51.53846153846153,22.692307692307693,18.461538461538463,6.538461538461539,low,59.23076923076923,0.7692307692307693,,,2.0,0.0,,
277,278,19,1.0,3.0,1.0,1,26,19,146,0.5,0.85,0.15,0.5,1174,99,604,51.92307692307693,0.3846153846153846,lose-switch,51.53846153846153,22.692307692307693,18.461538461538463,6.538461538461539,low,59.23076923076923,0.7692307692307693,,,3.0,,,1.0
278,279,20,1.0,3.0,0.0,1,26,20,156,0.5,0.85,0.15,0.5,497,99,604,51.92307692307693,0.3846153846153846,win-stay,51.53846153846153,22.692307692307693,18.461538461538463,6.538461538461539,low,59.23076923076923,0.7692307692307693,,,3.0,,,0.0
279,280,21,2.0,2.0,1.0,1,26,21,158,0.15,0.85,0.15,0.5,592,99,604,51.92307692307693,0.3846153846153846,lose-switch,51.53846153846153,22.692307692307693,18.461538461538463,6.538461538461539,low,59.23076923076923,0.7692307692307693,,,2.0,1.0,,
280,281,22,2.0,2.0,1.0,1,26,22,168,0.15,0.85,0.15,0.5,376,99,604,51.92307692307693,0.3846153846153846,win-stay,51.53846153846153,22.692307692307693,18.461538461538463,6.538461538461539,low,59.23076923076923,0.7692307692307693,,,2.0,1.0,,
281,282,23,2.0,2.0,0.0,1,26,23,178,0.15,0.85,0.15,0.5,352,99,604,51.92307692307693,0.3846153846153846,win-stay,51.53846153846153,22.692307692307693,18.461538461538463,6.538461538461539,low,59.23076923076923,0.7692307692307693,,,2.0,0.0,,
282,283,24,3.0,2.0,0.0,1,26,24,180,0.15,0.85,0.15,0.5,1160,99,604,51.92307692307693,0.3846153846153846,lose-stay,51.53846153846153,22.692307692307693,18.461538461538463,6.538461538461539,low,59.23076923076923,0.7692307692307693,,,2.0,0.0,,
283,284,25,1.0,3.0,1.0,1,26,25,182,0.5,0.85,0.15,0.5,740,99,604,51.92307692307693,0.3846153846153846,lose-switch,51.53846153846153,22.692307692307693,18.461538461538463,6.538461538461539,low,59.23076923076923,0.7692307692307693,,,3.0,,,1.0
284,285,26,1.0,2.0,0.0,1,26,26,192,0.15,0.85,0.15,0.5,517,99,604,51.92307692307693,0.3846153846153846,win-switch,51.53846153846153,22.692307692307693,18.461538461538463,6.538461538461539,low,59.23076923076923,0.7692307692307693,,,2.0,0.0,,
285,286,27,2.0,3.0,0.0,2,24,1,194,0.5,0.15,0.85,0.5,676,99,604,51.92307692307693,0.3846153846153846,lose-switch,51.53846153846153,22.692307692307693,18.461538461538463,6.538461538461539,low,59.23076923076923,0.7692307692307693,,,3.0,,,0.0
286,287,28,3.0,1.0,1.0,2,24,2,196,0.15,0.15,0.85,0.5,727,99,604,51.92307692307693,0.3846153846153846,lose-switch,51.53846153846153,22.692307692307693,18.461538461538463,6.538461538461539,low,59.23076923076923,0.7692307692307693,,,1.0,,1.0,
287,288,29,3.0,3.0,0.0,2,24,3,206,0.5,0.15,0.85,0.5,561,99,604,51.92307692307693,0.3846153846153846,win-switch,51.53846153846153,22.692307692307693,18.461538461538463,6.538461538461539,low,59.23076923076923,0.7692307692307693,,,3.0,,,0.0
288,289,30,1.0,1.0,0.0,2,24,4,208,0.15,0.15,0.85,0.5,522,99,604,51.92307692307693,0.3846153846153846,lose-switch,51.53846153846153,22.692307692307693,18.461538461538463,6.538461538461539,low,59.23076923076923,0.7692307692307693,,,1.0,,0.0,
289,290,31,1.0,1.0,0.0,2,24,5,210,0.15,0.15,0.85,0.5,752,99,604,51.92307692307693,0.3846153846153846,lose-stay,51.53846153846153,22.692307692307693,18.461538461538463,6.538461538461539,low,59.23076923076923,0.7692307692307693,,,1.0,,0.0,
290,291,32,1.0,2.0,1.0,2,24,6,212,0.85,0.15,0.85,0.5,819,99,604,51.92307692307693,0.3846153846153846,lose-switch,51.53846153846153,22.692307692307693,18.461538461538463,6.538461538461539,low,59.23076923076923,0.7692307692307693,,,2.0,1.0,,
291,292,33,3.0,2.0,1.0,2,24,7,222,0.85,0.15,0.85,0.5,632,99,604,51.92307692307693,0.3846153846153846,win-stay,51.53846153846153,22.692307692307693,18.461538461538463,6.538461538461539,low,59.23076923076923,0.7692307692307693,,,2.0,1.0,,
292,293,34,1.0,2.0,1.0,2,24,8,232,0.85,0.15,0.85,0.5,444,99,604,51.92307692307693,0.3846153846153846,win-stay,51.53846153846153,22.692307692307693,18.461538461538463,6.538461538461539,low,59.23076923076923,0.7692307692307693,,,2.0,1.0,,
293,294,35,3.0,2.0,0.0,2,24,9,242,0.85,0.15,0.85,0.5,616,99,604,51.92307692307693,0.3846153846153846,win-stay,51.53846153846153,22.692307692307693,18.461538461538463,6.538461538461539,low,59.23076923076923,0.7692307692307693,,,2.0,0.0,,
294,295,36,3.0,1.0,0.0,2,24,10,244,0.15,0.15,0.85,0.5,795,99,604,51.92307692307693,0.3846153846153846,lose-switch,51.53846153846153,22.692307692307693,18.461538461538463,6.538461538461539,low,59.23076923076923,0.7692307692307693,,,1.0,,0.0,
295,296,37,2.0,3.0,0.0,2,24,11,246,0.5,0.15,0.85,0.5,589,99,604,51.92307692307693,0.3846153846153846,lose-switch,51.53846153846153,22.692307692307693,18.461538461538463,6.538461538461539,low,59.23076923076923,0.7692307692307693,,,3.0,,,0.0
296,297,38,1.0,3.0,0.0,2,24,12,248,0.5,0.15,0.85,0.5,1152,99,604,51.92307692307693,0.3846153846153846,lose-stay,51.53846153846153,22.692307692307693,18.461538461538463,6.538461538461539,low,59.23076923076923,0.7692307692307693,,,3.0,,,0.0
297,298,39,3.0,1.0,1.0,2,24,13,250,0.15,0.15,0.85,0.5,815,99,604,51.92307692307693,0.3846153846153846,lose-switch,51.53846153846153,22.692307692307693,18.461538461538463,6.538461538461539,low,59.23076923076923,0.7692307692307693,,,1.0,,1.0,
298,299,40,1.0,1.0,0.0,2,24,14,260,0.15,0.15,0.85,0.5,505,99,604,51.92307692307693,0.3846153846153846,win-stay,51.53846153846153,22.692307692307693,18.461538461538463,6.538461538461539,low,59.23076923076923,0.7692307692307693,,,1.0,,0.0,
299,300,41,3.0,1.0,1.0,2,24,15,262,0.15,0.15,0.85,0.5,518,99,604,51.92307692307693,0.3846153846153846,lose-stay,51.53846153846153,22.692307692307693,18.461538461538463,6.538461538461539,low,59.23076923076923,0.7692307692307693,,,1.0,,1.0,
300,301,42,3.0,1.0,0.0,2,24,16,272,0.15,0.15,0.85,0.5,459,99,604,51.92307692307693,0.3846153846153846,win-stay,51.53846153846153,22.692307692307693,18.461538461538463,6.538461538461539,low,59.23076923076923,0.7692307692307693,,,1.0,,0.0,
301,302,43,2.0,2.0,1.0,2,24,17,274,0.85,0.15,0.85,0.5,619,99,604,51.92307692307693,0.3846153846153846,lose-switch,51.53846153846153,22.692307692307693,18.461538461538463,6.538461538461539,low,59.23076923076923,0.7692307692307693,,,2.0,1.0,,
302,303,44,1.0,2.0,1.0,2,24,18,284,0.85,0.15,0.85,0.5,476,99,604,51.92307692307693,0.3846153846153846,win-stay,51.53846153846153,22.692307692307693,18.461538461538463,6.538461538461539,low,59.23076923076923,0.7692307692307693,,,2.0,1.0,,
303,304,45,2.0,2.0,1.0,2,24,19,294,0.85,0.15,0.85,0.5,475,99,604,51.92307692307693,0.3846153846153846,win-stay,51.53846153846153,22.692307692307693,18.461538461538463,6.538461538461539,low,59.23076923076923,0.7692307692307693,,,2.0,1.0,,
304,305,46,2.0,2.0,1.0,2,24,20,304,0.85,0.15,0.85,0.5,438,99,604,51.92307692307693,0.3846153846153846,win-stay,51.53846153846153,22.692307692307693,18.461538461538463,6.538461538461539,low,59.23076923076923,0.7692307692307693,,,2.0,1.0,,
305,306,47,2.0,2.0,1.0,2,24,21,314,0.85,0.15,0.85,0.5,393,99,604,51.92307692307693,0.3846153846153846,win-stay,51.53846153846153,22.692307692307693,18.461538461538463,6.538461538461539,low,59.23076923076923,0.7692307692307693,,,2.0,1.0,,
306,307,48,1.0,2.0,0.0,2,24,22,324,0.85,0.15,0.85,0.5,802,99,604,51.92307692307693,0.3846153846153846,win-stay,51.53846153846153,22.692307692307693,18.461538461538463,6.538461538461539,low,59.23076923076923,0.7692307692307693,,,2.0,0.0,,
307,308,49,2.0,2.0,1.0,2,24,23,326,0.85,0.15,0.85,0.5,459,99,604,51.92307692307693,0.3846153846153846,lose-stay,51.53846153846153,22.692307692307693,18.461538461538463,6.538461538461539,low,59.23076923076923,0.7692307692307693,,,2.0,1.0,,
308,309,50,3.0,2.0,1.0,2,24,24,336,0.85,0.15,0.85,0.5,656,99,604,51.92307692307693,0.3846153846153846,win-stay,51.53846153846153,22.692307692307693,18.461538461538463,6.538461538461539,low,59.23076923076923,0.7692307692307693,,,2.0,1.0,,
309,310,51,1.0,2.0,0.0,3,25,1,346,0.15,0.85,0.15,0.5,560,99,604,51.92307692307693,0.3846153846153846,win-switch,51.53846153846153,22.692307692307693,18.461538461538463,6.538461538461539,low,59.23076923076923,0.7692307692307693,,,2.0,0.0,,
310,311,52,3.0,2.0,0.0,3,25,2,348,0.15,0.85,0.15,0.5,535,99,604,51.92307692307693,0.3846153846153846,lose-stay,51.53846153846153,22.692307692307693,18.461538461538463,6.538461538461539,low,59.23076923076923,0.7692307692307693,,,2.0,0.0,,
311,312,53,3.0,2.0,0.0,3,25,3,350,0.15,0.85,0.15,0.5,564,99,604,51.92307692307693,0.3846153846153846,lose-stay,51.53846153846153,22.692307692307693,18.461538461538463,6.538461538461539,low,59.23076923076923,0.7692307692307693,,,2.0,0.0,,
312,313,54,2.0,1.0,0.0,3,25,4,352,0.85,0.85,0.15,0.5,653,99,604,51.92307692307693,0.3846153846153846,lose-switch,51.53846153846153,22.692307692307693,18.461538461538463,6.538461538461539,low,59.23076923076923,0.7692307692307693,,,1.0,,0.0,
313,314,55,3.0,3.0,1.0,3,25,5,354,0.5,0.85,0.15,0.5,931,99,604,51.92307692307693,0.3846153846153846,lose-switch,51.53846153846153,22.692307692307693,18.461538461538463,6.538461538461539,low,59.23076923076923,0.7692307692307693,,,3.0,,,1.0
314,315,56,1.0,3.0,0.0,3,25,6,364,0.5,0.85,0.15,0.5,964,99,604,51.92307692307693,0.3846153846153846,win-stay,51.53846153846153,22.692307692307693,18.461538461538463,6.538461538461539,low,59.23076923076923,0.7692307692307693,,,3.0,,,0.0
315,316,57,1.0,3.0,1.0,3,25,7,366,0.5,0.85,0.15,0.5,477,99,604,51.92307692307693,0.3846153846153846,lose-stay,51.53846153846153,22.692307692307693,18.461538461538463,6.538461538461539,low,59.23076923076923,0.7692307692307693,,,3.0,,,1.0
316,317,58,1.0,2.0,0.0,3,25,8,376,0.15,0.85,0.15,0.5,452,99,604,51.92307692307693,0.3846153846153846,win-switch,51.53846153846153,22.692307692307693,18.461538461538463,6.538461538461539,low,59.23076923076923,0.7692307692307693,,,2.0,0.0,,
317,318,59,2.0,3.0,1.0,3,25,9,378,0.5,0.85,0.15,0.5,569,99,604,51.92307692307693,0.3846153846153846,lose-switch,51.53846153846153,22.692307692307693,18.461538461538463,6.538461538461539,low,59.23076923076923,0.7692307692307693,,,3.0,,,1.0
318,319,60,2.0,3.0,0.0,3,25,10,388,0.5,0.85,0.15,0.5,508,99,604,51.92307692307693,0.3846153846153846,win-stay,51.53846153846153,22.692307692307693,18.461538461538463,6.538461538461539,low,59.23076923076923,0.7692307692307693,,,3.0,,,0.0
319,320,61,1.0,3.0,1.0,3,25,11,390,0.5,0.85,0.15,0.5,533,99,604,51.92307692307693,0.3846153846153846,lose-stay,51.53846153846153,22.692307692307693,18.461538461538463,6.538461538461539,low,59.23076923076923,0.7692307692307693,,,3.0,,,1.0
320,321,62,3.0,3.0,1.0,3,25,12,400,0.5,0.85,0.15,0.5,588,99,604,51.92307692307693,0.3846153846153846,win-stay,51.53846153846153,22.692307692307693,18.461538461538463,6.538461538461539,low,59.23076923076923,0.7692307692307693,,,3.0,,,1.0
321,322,63,1.0,3.0,1.0,3,25,13,410,0.5,0.85,0.15,0.5,626,99,604,51.92307692307693,0.3846153846153846,win-stay,51.53846153846153,22.692307692307693,18.461538461538463,6.538461538461539,low,59.23076923076923,0.7692307692307693,,,3.0,,,1.0
322,323,64,1.0,3.0,1.0,3,25,14,420,0.5,0.85,0.15,0.5,497,99,604,51.92307692307693,0.3846153846153846,win-stay,51.53846153846153,22.692307692307693,18.461538461538463,6.538461538461539,low,59.23076923076923,0.7692307692307693,,,3.0,,,1.0
323,324,65,1.0,3.0,0.0,3,25,15,430,0.5,0.85,0.15,0.5,472,99,604,51.92307692307693,0.3846153846153846,win-stay,51.53846153846153,22.692307692307693,18.461538461538463,6.538461538461539,low,59.23076923076923,0.7692307692307693,,,3.0,,,0.0
324,325,66,2.0,3.0,0.0,3,25,16,432,0.5,0.85,0.15,0.5,728,99,604,51.92307692307693,0.3846153846153846,lose-stay,51.53846153846153,22.692307692307693,18.461538461538463,6.538461538461539,low,59.23076923076923,0.7692307692307693,,,3.0,,,0.0
325,326,67,2.0,3.0,1.0,3,25,17,434,0.5,0.85,0.15,0.5,579,99,604,51.92307692307693,0.3846153846153846,lose-stay,51.53846153846153,22.692307692307693,18.461538461538463,6.538461538461539,low,59.23076923076923,0.7692307692307693,,,3.0,,,1.0
326,327,68,3.0,3.0,0.0,3,25,18,444,0.5,0.85,0.15,0.5,632,99,604,51.92307692307693,0.3846153846153846,win-stay,51.53846153846153,22.692307692307693,18.461538461538463,6.538461538461539,low,59.23076923076923,0.7692307692307693,,,3.0,,,0.0
327,328,69,1.0,3.0,0.0,3,25,19,446,0.5,0.85,0.15,0.5,655,99,604,51.92307692307693,0.3846153846153846,lose-stay,51.53846153846153,22.692307692307693,18.461538461538463,6.538461538461539,low,59.23076923076923,0.7692307692307693,,,3.0,,,0.0
328,329,70,3.0,2.0,0.0,3,25,20,448,0.15,0.85,0.15,0.5,1141,99,604,51.92307692307693,0.3846153846153846,lose-switch,51.53846153846153,22.692307692307693,18.461538461538463,6.538461538461539,low,59.23076923076923,0.7692307692307693,,,2.0,0.0,,
329,330,71,1.0,2.0,0.0,3,25,21,450,0.15,0.85,0.15,0.5,545,99,604,51.92307692307693,0.3846153846153846,lose-stay,51.53846153846153,22.692307692307693,18.461538461538463,6.538461538461539,low,59.23076923076923,0.7692307692307693,,,2.0,0.0,,
330,331,72,3.0,1.0,1.0,3,25,22,452,0.85,0.85,0.15,0.5,582,99,604,51.92307692307693,0.3846153846153846,lose-switch,51.53846153846153,22.692307692307693,18.461538461538463,6.538461538461539,low,59.23076923076923,0.7692307692307693,,,1.0,,1.0,
331,332,73,1.0,1.0,1.0,3,25,23,462,0.85,0.85,0.15,0.5,456,99,604,51.92307692307693,0.3846153846153846,win-stay,51.53846153846153,22.692307692307693,18.461538461538463,6.538461538461539,low,59.23076923076923,0.7692307692307693,,,1.0,,1.0,
332,333,74,1.0,1.0,1.0,3,25,24,472,0.85,0.85,0.15,0.5,475,99,604,51.92307692307693,0.3846153846153846,win-stay,51.53846153846153,22.692307692307693,18.461538461538463,6.538461538461539,low,59.23076923076923,0.7692307692307693,,,1.0,,1.0,
333,334,75,1.0,1.0,1.0,3,25,25,482,0.85,0.85,0.15,0.5,405,99,604,51.92307692307693,0.3846153846153846,win-stay,51.53846153846153,22.692307692307693,18.461538461538463,6.538461538461539,low,59.23076923076923,0.7692307692307693,,,1.0,,1.0,
334,335,76,1.0,1.0,0.0,4,25,1,492,0.15,0.15,0.85,0.5,682,99,604,51.92307692307693,0.3846153846153846,win-switch,51.53846153846153,22.692307692307693,18.461538461538463,6.538461538461539,low,59.23076923076923,0.7692307692307693,,,1.0,,0.0,
335,336,77,2.0,1.0,0.0,4,25,2,494,0.15,0.15,0.85,0.5,460,99,604,51.92307692307693,0.3846153846153846,lose-stay,51.53846153846153,22.692307692307693,18.461538461538463,6.538461538461539,low,59.23076923076923,0.7692307692307693,,,1.0,,0.0,
336,337,78,2.0,1.0,1.0,4,25,3,496,0.15,0.15,0.85,0.5,411,99,604,51.92307692307693,0.3846153846153846,lose-stay,51.53846153846153,22.692307692307693,18.461538461538463,6.538461538461539,low,59.23076923076923,0.7692307692307693,,,1.0,,1.0,
337,338,79,3.0,1.0,0.0,4,25,4,506,0.15,0.15,0.85,0.5,562,99,604,51.92307692307693,0.3846153846153846,win-stay,51.53846153846153,22.692307692307693,18.461538461538463,6.538461538461539,low,59.23076923076923,0.7692307692307693,,,1.0,,0.0,
338,339,80,3.0,1.0,0.0,4,25,5,508,0.15,0.15,0.85,0.5,450,99,604,51.92307692307693,0.3846153846153846,lose-stay,51.53846153846153,22.692307692307693,18.461538461538463,6.538461538461539,low,59.23076923076923,0.7692307692307693,,,1.0,,0.0,
339,340,81,1.0,2.0,1.0,4,25,6,510,0.85,0.15,0.85,0.5,874,99,604,51.92307692307693,0.3846153846153846,lose-switch,51.53846153846153,22.692307692307693,18.461538461538463,6.538461538461539,low,59.23076923076923,0.7692307692307693,,,2.0,1.0,,
340,341,82,1.0,2.0,0.0,4,25,7,520,0.85,0.15,0.85,0.5,368,99,604,51.92307692307693,0.3846153846153846,win-stay,51.53846153846153,22.692307692307693,18.461538461538463,6.538461538461539,low,59.23076923076923,0.7692307692307693,,,2.0,0.0,,
341,342,83,1.0,1.0,0.0,4,25,8,522,0.15,0.15,0.85,0.5,354,99,604,51.92307692307693,0.3846153846153846,lose-switch,51.53846153846153,22.692307692307693,18.461538461538463,6.538461538461539,low,59.23076923076923,0.7692307692307693,,,1.0,,0.0,
342,343,84,1.0,2.0,1.0,4,25,9,524,0.85,0.15,0.85,0.5,444,99,604,51.92307692307693,0.3846153846153846,lose-switch,51.53846153846153,22.692307692307693,18.461538461538463,6.538461538461539,low,59.23076923076923,0.7692307692307693,,,2.0,1.0,,
343,344,85,3.0,2.0,0.0,4,25,10,534,0.85,0.15,0.85,0.5,539,99,604,51.92307692307693,0.3846153846153846,win-stay,51.53846153846153,22.692307692307693,18.461538461538463,6.538461538461539,low,59.23076923076923,0.7692307692307693,,,2.0,0.0,,
344,345,86,1.0,2.0,1.0,4,25,11,536,0.85,0.15,0.85,0.5,469,99,604,51.92307692307693,0.3846153846153846,lose-stay,51.53846153846153,22.692307692307693,18.461538461538463,6.538461538461539,low,59.23076923076923,0.7692307692307693,,,2.0,1.0,,
345,346,87,1.0,2.0,1.0,4,25,12,546,0.85,0.15,0.85,0.5,405,99,604,51.92307692307693,0.3846153846153846,win-stay,51.53846153846153,22.692307692307693,18.461538461538463,6.538461538461539,low,59.23076923076923,0.7692307692307693,,,2.0,1.0,,
346,347,88,2.0,2.0,1.0,4,25,13,556,0.85,0.15,0.85,0.5,601,99,604,51.92307692307693,0.3846153846153846,win-stay,51.53846153846153,22.692307692307693,18.461538461538463,6.538461538461539,low,59.23076923076923,0.7692307692307693,,,2.0,1.0,,
347,348,89,3.0,2.0,1.0,4,25,14,566,0.85,0.15,0.85,0.5,718,99,604,51.92307692307693,0.3846153846153846,win-stay,51.53846153846153,22.692307692307693,18.461538461538463,6.538461538461539,low,59.23076923076923,0.7692307692307693,,,2.0,1.0,,
348,349,90,1.0,2.0,1.0,4,25,15,576,0.85,0.15,0.85,0.5,488,99,604,51.92307692307693,0.3846153846153846,win-stay,51.53846153846153,22.692307692307693,18.461538461538463,6.538461538461539,low,59.23076923076923,0.7692307692307693,,,2.0,1.0,,
349,350,91,2.0,2.0,1.0,4,25,16,586,0.85,0.15,0.85,0.5,521,99,604,51.92307692307693,0.3846153846153846,win-stay,51.53846153846153,22.692307692307693,18.461538461538463,6.538461538461539,low,59.23076923076923,0.7692307692307693,,,2.0,1.0,,
350,351,92,1.0,2.0,0.0,4,25,17,596,0.85,0.15,0.85,0.5,480,99,604,51.92307692307693,0.3846153846153846,win-stay,51.53846153846153,22.692307692307693,18.461538461538463,6.538461538461539,low,59.23076923076923,0.7692307692307693,,,2.0,0.0,,
351,352,93,2.0,2.0,0.0,4,25,18,598,0.85,0.15,0.85,0.5,423,99,604,51.92307692307693,0.3846153846153846,lose-stay,51.53846153846153,22.692307692307693,18.461538461538463,6.538461538461539,low,59.23076923076923,0.7692307692307693,,,2.0,0.0,,
352,353,94,3.0,2.0,1.0,4,25,19,600,0.85,0.15,0.85,0.5,506,99,604,51.92307692307693,0.3846153846153846,lose-stay,51.53846153846153,22.692307692307693,18.461538461538463,6.538461538461539,low,59.23076923076923,0.7692307692307693,,,2.0,1.0,,
353,354,95,2.0,2.0,1.0,4,25,20,610,0.85,0.15,0.85,0.5,444,99,604,51.92307692307693,0.3846153846153846,win-stay,51.53846153846153,22.692307692307693,18.461538461538463,6.538461538461539,low,59.23076923076923,0.7692307692307693,,,2.0,1.0,,
354,355,96,1.0,2.0,1.0,4,25,21,620,0.85,0.15,0.85,0.5,569,99,604,51.92307692307693,0.3846153846153846,win-stay,51.53846153846153,22.692307692307693,18.461538461538463,6.538461538461539,low,59.23076923076923,0.7692307692307693,,,2.0,1.0,,
355,356,97,3.0,2.0,1.0,4,25,22,630,0.85,0.15,0.85,0.5,532,99,604,51.92307692307693,0.3846153846153846,win-stay,51.53846153846153,22.692307692307693,18.461538461538463,6.538461538461539,low,59.23076923076923,0.7692307692307693,,,2.0,1.0,,
356,357,98,1.0,2.0,1.0,4,25,23,640,0.85,0.15,0.85,0.5,486,99,604,51.92307692307693,0.3846153846153846,win-stay,51.53846153846153,22.692307692307693,18.461538461538463,6.538461538461539,low,59.23076923076923,0.7692307692307693,,,2.0,1.0,,
357,358,99,3.0,2.0,1.0,4,25,24,650,0.85,0.15,0.85,0.5,498,99,604,51.92307692307693,0.3846153846153846,win-stay,51.53846153846153,22.692307692307693,18.461538461538463,6.538461538461539,low,59.23076923076923,0.7692307692307693,,,2.0,1.0,,
358,359,100,1.0,2.0,1.0,4,25,25,660,0.85,0.15,0.85,0.5,425,99,604,51.92307692307693,0.3846153846153846,win-stay,51.53846153846153,22.692307692307693,18.461538461538463,6.538461538461539,low,59.23076923076923,0.7692307692307693,,,2.0,1.0,,
359,360,101,3.0,2.0,0.0,5,30,1,670,0.15,0.85,0.15,0.5,418,99,604,51.92307692307693,0.3846153846153846,win-switch,51.53846153846153,22.692307692307693,18.461538461538463,6.538461538461539,low,59.23076923076923,0.7692307692307693,,,2.0,0.0,,
360,361,102,3.0,2.0,0.0,5,30,2,672,0.15,0.85,0.15,0.5,517,99,604,51.92307692307693,0.3846153846153846,lose-stay,51.53846153846153,22.692307692307693,18.461538461538463,6.538461538461539,low,59.23076923076923,0.7692307692307693,,,2.0,0.0,,
361,362,103,3.0,2.0,0.0,5,30,3,674,0.15,0.85,0.15,0.5,357,99,604,51.92307692307693,0.3846153846153846,lose-stay,51.53846153846153,22.692307692307693,18.461538461538463,6.538461538461539,low,59.23076923076923,0.7692307692307693,,,2.0,0.0,,
362,363,104,3.0,1.0,1.0,5,30,4,676,0.85,0.85,0.15,0.5,489,99,604,51.92307692307693,0.3846153846153846,lose-switch,51.53846153846153,22.692307692307693,18.461538461538463,6.538461538461539,low,59.23076923076923,0.7692307692307693,,,1.0,,1.0,
363,364,105,3.0,1.0,1.0,5,30,5,686,0.85,0.85,0.15,0.5,655,99,604,51.92307692307693,0.3846153846153846,win-stay,51.53846153846153,22.692307692307693,18.461538461538463,6.538461538461539,low,59.23076923076923,0.7692307692307693,,,1.0,,1.0,
364,365,106,1.0,1.0,1.0,5,30,6,696,0.85,0.85,0.15,0.5,447,99,604,51.92307692307693,0.3846153846153846,win-stay,51.53846153846153,22.692307692307693,18.461538461538463,6.538461538461539,low,59.23076923076923,0.7692307692307693,,,1.0,,1.0,
365,366,107,3.0,1.0,0.0,5,30,7,706,0.85,0.85,0.15,0.5,506,99,604,51.92307692307693,0.3846153846153846,win-stay,51.53846153846153,22.692307692307693,18.461538461538463,6.538461538461539,low,59.23076923076923,0.7692307692307693,,,1.0,,0.0,
366,367,108,3.0,1.0,1.0,5,30,8,708,0.85,0.85,0.15,0.5,447,99,604,51.92307692307693,0.3846153846153846,lose-stay,51.53846153846153,22.692307692307693,18.461538461538463,6.538461538461539,low,59.23076923076923,0.7692307692307693,,,1.0,,1.0,
367,368,109,1.0,1.0,1.0,5,30,9,718,0.85,0.85,0.15,0.5,524,99,604,51.92307692307693,0.3846153846153846,win-stay,51.53846153846153,22.692307692307693,18.461538461538463,6.538461538461539,low,59.23076923076923,0.7692307692307693,,,1.0,,1.0,
368,369,110,1.0,1.0,1.0,5,30,10,728,0.85,0.85,0.15,0.5,412,99,604,51.92307692307693,0.3846153846153846,win-stay,51.53846153846153,22.692307692307693,18.461538461538463,6.538461538461539,low,59.23076923076923,0.7692307692307693,,,1.0,,1.0,
369,370,111,1.0,2.0,0.0,5,30,11,738,0.15,0.85,0.15,0.5,354,99,604,51.92307692307693,0.3846153846153846,win-switch,51.53846153846153,22.692307692307693,18.461538461538463,6.538461538461539,low,59.23076923076923,0.7692307692307693,,,2.0,0.0,,
370,371,112,1.0,1.0,1.0,5,30,12,740,0.85,0.85,0.15,0.5,515,99,604,51.92307692307693,0.3846153846153846,lose-switch,51.53846153846153,22.692307692307693,18.461538461538463,6.538461538461539,low,59.23076923076923,0.7692307692307693,,,1.0,,1.0,
371,372,113,2.0,1.0,1.0,5,30,13,750,0.85,0.85,0.15,0.5,688,99,604,51.92307692307693,0.3846153846153846,win-stay,51.53846153846153,22.692307692307693,18.461538461538463,6.538461538461539,low,59.23076923076923,0.7692307692307693,,,1.0,,1.0,
372,373,114,2.0,1.0,1.0,5,30,14,760,0.85,0.85,0.15,0.5,458,99,604,51.92307692307693,0.3846153846153846,win-stay,51.53846153846153,22.692307692307693,18.461538461538463,6.538461538461539,low,59.23076923076923,0.7692307692307693,,,1.0,,1.0,
373,374,115,2.0,1.0,0.0,5,30,15,770,0.85,0.85,0.15,0.5,558,99,604,51.92307692307693,0.3846153846153846,win-stay,51.53846153846153,22.692307692307693,18.461538461538463,6.538461538461539,low,59.23076923076923,0.7692307692307693,,,1.0,,0.0,
374,375,116,1.0,1.0,1.0,5,30,16,772,0.85,0.85,0.15,0.5,428,99,604,51.92307692307693,0.3846153846153846,lose-stay,51.53846153846153,22.692307692307693,18.461538461538463,6.538461538461539,low,59.23076923076923,0.7692307692307693,,,1.0,,1.0,
375,376,117,2.0,1.0,0.0,5,30,17,782,0.85,0.85,0.15,0.5,444,99,604,51.92307692307693,0.3846153846153846,win-stay,51.53846153846153,22.692307692307693,18.461538461538463,6.538461538461539,low,59.23076923076923,0.7692307692307693,,,1.0,,0.0,
376,377,118,3.0,1.0,1.0,5,30,18,784,0.85,0.85,0.15,0.5,435,99,604,51.92307692307693,0.3846153846153846,lose-stay,51.53846153846153,22.692307692307693,18.461538461538463,6.538461538461539,low,59.23076923076923,0.7692307692307693,,,1.0,,1.0,
377,378,119,3.0,1.0,1.0,5,30,19,794,0.85,0.85,0.15,0.5,412,99,604,51.92307692307693,0.3846153846153846,win-stay,51.53846153846153,22.692307692307693,18.461538461538463,6.538461538461539,low,59.23076923076923,0.7692307692307693,,,1.0,,1.0,
378,379,120,3.0,1.0,1.0,5,30,20,804,0.85,0.85,0.15,0.5,428,99,604,51.92307692307693,0.3846153846153846,win-stay,51.53846153846153,22.692307692307693,18.461538461538463,6.538461538461539,low,59.23076923076923,0.7692307692307693,,,1.0,,1.0,
379,380,121,1.0,1.0,1.0,5,30,21,814,0.85,0.85,0.15,0.5,410,99,604,51.92307692307693,0.3846153846153846,win-stay,51.53846153846153,22.692307692307693,18.461538461538463,6.538461538461539,low,59.23076923076923,0.7692307692307693,,,1.0,,1.0,
380,381,122,2.0,1.0,1.0,5,30,22,824,0.85,0.85,0.15,0.5,413,99,604,51.92307692307693,0.3846153846153846,win-stay,51.53846153846153,22.692307692307693,18.461538461538463,6.538461538461539,low,59.23076923076923,0.7692307692307693,,,1.0,,1.0,
381,382,123,2.0,1.0,1.0,5,30,23,834,0.85,0.85,0.15,0.5,338,99,604,51.92307692307693,0.3846153846153846,win-stay,51.53846153846153,22.692307692307693,18.461538461538463,6.538461538461539,low,59.23076923076923,0.7692307692307693,,,1.0,,1.0,
382,383,124,3.0,1.0,1.0,5,30,24,844,0.85,0.85,0.15,0.5,442,99,604,51.92307692307693,0.3846153846153846,win-stay,51.53846153846153,22.692307692307693,18.461538461538463,6.538461538461539,low,59.23076923076923,0.7692307692307693,,,1.0,,1.0,
383,384,125,3.0,1.0,1.0,5,30,25,854,0.85,0.85,0.15,0.5,505,99,604,51.92307692307693,0.3846153846153846,win-stay,51.53846153846153,22.692307692307693,18.461538461538463,6.538461538461539,low,59.23076923076923,0.7692307692307693,,,1.0,,1.0,
384,385,126,2.0,1.0,1.0,5,30,26,864,0.85,0.85,0.15,0.5,455,99,604,51.92307692307693,0.3846153846153846,win-stay,51.53846153846153,22.692307692307693,18.461538461538463,6.538461538461539,low,59.23076923076923,0.7692307692307693,,,1.0,,1.0,
385,386,127,1.0,1.0,0.0,5,30,27,874,0.85,0.85,0.15,0.5,443,99,604,51.92307692307693,0.3846153846153846,win-stay,51.53846153846153,22.692307692307693,18.461538461538463,6.538461538461539,low,59.23076923076923,0.7692307692307693,,,1.0,,0.0,
386,387,128,1.0,1.0,1.0,5,30,28,876,0.85,0.85,0.15,0.5,350,99,604,51.92307692307693,0.3846153846153846,lose-stay,51.53846153846153,22.692307692307693,18.461538461538463,6.538461538461539,low,59.23076923076923,0.7692307692307693,,,1.0,,1.0,
387,388,129,2.0,1.0,1.0,5,30,29,886,0.85,0.85,0.15,0.5,420,99,604,51.92307692307693,0.3846153846153846,win-stay,51.53846153846153,22.692307692307693,18.461538461538463,6.538461538461539,low,59.23076923076923,0.7692307692307693,,,1.0,,1.0,
388,389,130,3.0,1.0,0.0,5,30,30,896,0.85,0.85,0.15,0.5,570,99,604,51.92307692307693,0.3846153846153846,win-stay,51.53846153846153,22.692307692307693,18.461538461538463,6.538461538461539,low,59.23076923076923,0.7692307692307693,,,1.0,,0.0,
389,390,1,1.0,1.0,1.0,1,19,1,0,0.85,0.85,0.15,0.5,1807,108,604,51.53846153846153,1.9230769230769231,Na,56.15384615384615,14.23076923076923,18.846153846153847,6.923076923076923,low,48.46153846153846,0.7692307692307693,,,1.0,,1.0,
390,391,2,2.0,3.0,1.0,1,19,2,10,0.5,0.85,0.15,0.5,2403,108,604,51.53846153846153,1.9230769230769231,win-switch,56.15384615384615,14.23076923076923,18.846153846153847,6.923076923076923,low,48.46153846153846,0.7692307692307693,,,3.0,,,1.0
391,392,3,3.0,2.0,0.0,1,19,3,20,0.15,0.85,0.15,0.5,1810,108,604,51.53846153846153,1.9230769230769231,win-switch,56.15384615384615,14.23076923076923,18.846153846153847,6.923076923076923,low,48.46153846153846,0.7692307692307693,,,2.0,0.0,,
392,394,5,2.0,2.0,0.0,1,19,5,22,0.15,0.85,0.15,0.5,983,108,604,51.53846153846153,1.9230769230769231,Na,56.15384615384615,14.23076923076923,18.846153846153847,6.923076923076923,low,48.46153846153846,0.7692307692307693,,,2.0,0.0,,
393,395,6,1.0,3.0,1.0,1,19,6,24,0.5,0.85,0.15,0.5,639,108,604,51.53846153846153,1.9230769230769231,lose-switch,56.15384615384615,14.23076923076923,18.846153846153847,6.923076923076923,low,48.46153846153846,0.7692307692307693,,,3.0,,,1.0
394,396,7,1.0,2.0,0.0,1,19,7,34,0.15,0.85,0.15,0.5,1539,108,604,51.53846153846153,1.9230769230769231,win-switch,56.15384615384615,14.23076923076923,18.846153846153847,6.923076923076923,low,48.46153846153846,0.7692307692307693,,,2.0,0.0,,
395,397,8,2.0,2.0,0.0,1,19,8,36,0.15,0.85,0.15,0.5,847,108,604,51.53846153846153,1.9230769230769231,lose-stay,56.15384615384615,14.23076923076923,18.846153846153847,6.923076923076923,low,48.46153846153846,0.7692307692307693,,,2.0,0.0,,
396,398,9,3.0,3.0,1.0,1,19,9,38,0.5,0.85,0.15,0.5,751,108,604,51.53846153846153,1.9230769230769231,lose-switch,56.15384615384615,14.23076923076923,18.846153846153847,6.923076923076923,low,48.46153846153846,0.7692307692307693,,,3.0,,,1.0
397,399,10,3.0,3.0,1.0,1,19,10,48,0.5,0.85,0.15,0.5,741,108,604,51.53846153846153,1.9230769230769231,win-stay,56.15384615384615,14.23076923076923,18.846153846153847,6.923076923076923,low,48.46153846153846,0.7692307692307693,,,3.0,,,1.0
398,400,11,1.0,3.0,1.0,1,19,11,58,0.5,0.85,0.15,0.5,827,108,604,51.53846153846153,1.9230769230769231,win-stay,56.15384615384615,14.23076923076923,18.846153846153847,6.923076923076923,low,48.46153846153846,0.7692307692307693,,,3.0,,,1.0
399,401,12,2.0,3.0,1.0,1,19,12,68,0.5,0.85,0.15,0.5,756,108,604,51.53846153846153,1.9230769230769231,win-stay,56.15384615384615,14.23076923076923,18.846153846153847,6.923076923076923,low,48.46153846153846,0.7692307692307693,,,3.0,,,1.0
400,402,13,1.0,3.0,0.0,1,19,13,78,0.5,0.85,0.15,0.5,855,108,604,51.53846153846153,1.9230769230769231,win-stay,56.15384615384615,14.23076923076923,18.846153846153847,6.923076923076923,low,48.46153846153846,0.7692307692307693,,,3.0,,,0.0
401,403,14,1.0,3.0,1.0,1,19,14,80,0.5,0.85,0.15,0.5,854,108,604,51.53846153846153,1.9230769230769231,lose-stay,56.15384615384615,14.23076923076923,18.846153846153847,6.923076923076923,low,48.46153846153846,0.7692307692307693,,,3.0,,,1.0
402,404,15,3.0,3.0,0.0,1,19,15,90,0.5,0.85,0.15,0.5,927,108,604,51.53846153846153,1.9230769230769231,win-stay,56.15384615384615,14.23076923076923,18.846153846153847,6.923076923076923,low,48.46153846153846,0.7692307692307693,,,3.0,,,0.0
403,405,16,3.0,3.0,1.0,1,19,16,92,0.5,0.85,0.15,0.5,418,108,604,51.53846153846153,1.9230769230769231,lose-stay,56.15384615384615,14.23076923076923,18.846153846153847,6.923076923076923,low,48.46153846153846,0.7692307692307693,,,3.0,,,1.0
404,406,17,3.0,3.0,0.0,1,19,17,102,0.5,0.85,0.15,0.5,658,108,604,51.53846153846153,1.9230769230769231,win-stay,56.15384615384615,14.23076923076923,18.846153846153847,6.923076923076923,low,48.46153846153846,0.7692307692307693,,,3.0,,,0.0
405,407,18,2.0,1.0,1.0,1,19,18,104,0.85,0.85,0.15,0.5,617,108,604,51.53846153846153,1.9230769230769231,lose-switch,56.15384615384615,14.23076923076923,18.846153846153847,6.923076923076923,low,48.46153846153846,0.7692307692307693,,,1.0,,1.0,
406,408,19,1.0,1.0,0.0,1,19,19,114,0.85,0.85,0.15,0.5,834,108,604,51.53846153846153,1.9230769230769231,win-stay,56.15384615384615,14.23076923076923,18.846153846153847,6.923076923076923,low,48.46153846153846,0.7692307692307693,,,1.0,,0.0,
407,409,20,3.0,3.0,0.0,2,26,1,116,0.5,0.15,0.85,0.5,760,108,604,51.53846153846153,1.9230769230769231,lose-switch,56.15384615384615,14.23076923076923,18.846153846153847,6.923076923076923,low,48.46153846153846,0.7692307692307693,,,3.0,,,0.0
408,410,21,2.0,1.0,0.0,2,26,2,118,0.15,0.15,0.85,0.5,614,108,604,51.53846153846153,1.9230769230769231,lose-switch,56.15384615384615,14.23076923076923,18.846153846153847,6.923076923076923,low,48.46153846153846,0.7692307692307693,,,1.0,,0.0,
409,411,22,1.0,3.0,0.0,2,26,3,120,0.5,0.15,0.85,0.5,651,108,604,51.53846153846153,1.9230769230769231,lose-switch,56.15384615384615,14.23076923076923,18.846153846153847,6.923076923076923,low,48.46153846153846,0.7692307692307693,,,3.0,,,0.0
410,412,23,3.0,3.0,1.0,2,26,4,122,0.5,0.15,0.85,0.5,981,108,604,51.53846153846153,1.9230769230769231,lose-stay,56.15384615384615,14.23076923076923,18.846153846153847,6.923076923076923,low,48.46153846153846,0.7692307692307693,,,3.0,,,1.0
411,413,24,1.0,3.0,0.0,2,26,5,132,0.5,0.15,0.85,0.5,684,108,604,51.53846153846153,1.9230769230769231,win-stay,56.15384615384615,14.23076923076923,18.846153846153847,6.923076923076923,low,48.46153846153846,0.7692307692307693,,,3.0,,,0.0
412,414,25,1.0,3.0,1.0,2,26,6,134,0.5,0.15,0.85,0.5,993,108,604,51.53846153846153,1.9230769230769231,lose-stay,56.15384615384615,14.23076923076923,18.846153846153847,6.923076923076923,low,48.46153846153846,0.7692307692307693,,,3.0,,,1.0
413,415,26,1.0,3.0,1.0,2,26,7,144,0.5,0.15,0.85,0.5,739,108,604,51.53846153846153,1.9230769230769231,win-stay,56.15384615384615,14.23076923076923,18.846153846153847,6.923076923076923,low,48.46153846153846,0.7692307692307693,,,3.0,,,1.0
414,416,27,3.0,3.0,1.0,2,26,8,154,0.5,0.15,0.85,0.5,881,108,604,51.53846153846153,1.9230769230769231,win-stay,56.15384615384615,14.23076923076923,18.846153846153847,6.923076923076923,low,48.46153846153846,0.7692307692307693,,,3.0,,,1.0
415,417,28,1.0,3.0,0.0,2,26,9,164,0.5,0.15,0.85,0.5,778,108,604,51.53846153846153,1.9230769230769231,win-stay,56.15384615384615,14.23076923076923,18.846153846153847,6.923076923076923,low,48.46153846153846,0.7692307692307693,,,3.0,,,0.0
416,418,29,3.0,3.0,0.0,2,26,10,166,0.5,0.15,0.85,0.5,628,108,604,51.53846153846153,1.9230769230769231,lose-stay,56.15384615384615,14.23076923076923,18.846153846153847,6.923076923076923,low,48.46153846153846,0.7692307692307693,,,3.0,,,0.0
417,419,30,2.0,2.0,1.0,2,26,11,168,0.85,0.15,0.85,0.5,509,108,604,51.53846153846153,1.9230769230769231,lose-switch,56.15384615384615,14.23076923076923,18.846153846153847,6.923076923076923,low,48.46153846153846,0.7692307692307693,,,2.0,1.0,,
418,420,31,1.0,3.0,0.0,2,26,12,178,0.5,0.15,0.85,0.5,566,108,604,51.53846153846153,1.9230769230769231,win-switch,56.15384615384615,14.23076923076923,18.846153846153847,6.923076923076923,low,48.46153846153846,0.7692307692307693,,,3.0,,,0.0
419,421,32,1.0,3.0,1.0,2,26,13,180,0.5,0.15,0.85,0.5,857,108,604,51.53846153846153,1.9230769230769231,lose-stay,56.15384615384615,14.23076923076923,18.846153846153847,6.923076923076923,low,48.46153846153846,0.7692307692307693,,,3.0,,,1.0
420,422,33,2.0,3.0,0.0,2,26,14,190,0.5,0.15,0.85,0.5,665,108,604,51.53846153846153,1.9230769230769231,win-stay,56.15384615384615,14.23076923076923,18.846153846153847,6.923076923076923,low,48.46153846153846,0.7692307692307693,,,3.0,,,0.0
421,423,34,3.0,3.0,0.0,2,26,15,192,0.5,0.15,0.85,0.5,640,108,604,51.53846153846153,1.9230769230769231,lose-stay,56.15384615384615,14.23076923076923,18.846153846153847,6.923076923076923,low,48.46153846153846,0.7692307692307693,,,3.0,,,0.0
422,424,35,1.0,2.0,1.0,2,26,16,194,0.85,0.15,0.85,0.5,1463,108,604,51.53846153846153,1.9230769230769231,lose-switch,56.15384615384615,14.23076923076923,18.846153846153847,6.923076923076923,low,48.46153846153846,0.7692307692307693,,,2.0,1.0,,
423,425,36,3.0,2.0,1.0,2,26,17,204,0.85,0.15,0.85,0.5,674,108,604,51.53846153846153,1.9230769230769231,win-stay,56.15384615384615,14.23076923076923,18.846153846153847,6.923076923076923,low,48.46153846153846,0.7692307692307693,,,2.0,1.0,,
424,426,37,2.0,2.0,1.0,2,26,18,214,0.85,0.15,0.85,0.5,660,108,604,51.53846153846153,1.9230769230769231,win-stay,56.15384615384615,14.23076923076923,18.846153846153847,6.923076923076923,low,48.46153846153846,0.7692307692307693,,,2.0,1.0,,
425,427,38,3.0,2.0,1.0,2,26,19,224,0.85,0.15,0.85,0.5,550,108,604,51.53846153846153,1.9230769230769231,win-stay,56.15384615384615,14.23076923076923,18.846153846153847,6.923076923076923,low,48.46153846153846,0.7692307692307693,,,2.0,1.0,,
426,428,39,1.0,2.0,1.0,2,26,20,234,0.85,0.15,0.85,0.5,1693,108,604,51.53846153846153,1.9230769230769231,win-stay,56.15384615384615,14.23076923076923,18.846153846153847,6.923076923076923,low,48.46153846153846,0.7692307692307693,,,2.0,1.0,,
427,429,40,2.0,2.0,1.0,2,26,21,244,0.85,0.15,0.85,0.5,800,108,604,51.53846153846153,1.9230769230769231,win-stay,56.15384615384615,14.23076923076923,18.846153846153847,6.923076923076923,low,48.46153846153846,0.7692307692307693,,,2.0,1.0,,
428,430,41,3.0,2.0,1.0,2,26,22,254,0.85,0.15,0.85,0.5,732,108,604,51.53846153846153,1.9230769230769231,win-stay,56.15384615384615,14.23076923076923,18.846153846153847,6.923076923076923,low,48.46153846153846,0.7692307692307693,,,2.0,1.0,,
429,431,42,1.0,2.0,1.0,2,26,23,264,0.85,0.15,0.85,0.5,1064,108,604,51.53846153846153,1.9230769230769231,win-stay,56.15384615384615,14.23076923076923,18.846153846153847,6.923076923076923,low,48.46153846153846,0.7692307692307693,,,2.0,1.0,,
430,432,43,2.0,2.0,1.0,2,26,24,274,0.85,0.15,0.85,0.5,1504,108,604,51.53846153846153,1.9230769230769231,win-stay,56.15384615384615,14.23076923076923,18.846153846153847,6.923076923076923,low,48.46153846153846,0.7692307692307693,,,2.0,1.0,,
431,433,44,1.0,2.0,1.0,2,26,25,284,0.85,0.15,0.85,0.5,521,108,604,51.53846153846153,1.9230769230769231,win-stay,56.15384615384615,14.23076923076923,18.846153846153847,6.923076923076923,low,48.46153846153846,0.7692307692307693,,,2.0,1.0,,
432,434,45,2.0,2.0,1.0,2,26,26,294,0.85,0.15,0.85,0.5,876,108,604,51.53846153846153,1.9230769230769231,win-stay,56.15384615384615,14.23076923076923,18.846153846153847,6.923076923076923,low,48.46153846153846,0.7692307692307693,,,2.0,1.0,,
433,435,46,1.0,2.0,0.0,3,24,1,304,0.15,0.85,0.15,0.5,504,108,604,51.53846153846153,1.9230769230769231,win-switch,56.15384615384615,14.23076923076923,18.846153846153847,6.923076923076923,low,48.46153846153846,0.7692307692307693,,,2.0,0.0,,
434,436,47,1.0,2.0,0.0,3,24,2,306,0.15,0.85,0.15,0.5,603,108,604,51.53846153846153,1.9230769230769231,lose-stay,56.15384615384615,14.23076923076923,18.846153846153847,6.923076923076923,low,48.46153846153846,0.7692307692307693,,,2.0,0.0,,
435,437,48,2.0,1.0,1.0,3,24,3,308,0.85,0.85,0.15,0.5,714,108,604,51.53846153846153,1.9230769230769231,lose-switch,56.15384615384615,14.23076923076923,18.846153846153847,6.923076923076923,low,48.46153846153846,0.7692307692307693,,,1.0,,1.0,
436,438,49,2.0,1.0,1.0,3,24,4,318,0.85,0.85,0.15,0.5,443,108,604,51.53846153846153,1.9230769230769231,win-stay,56.15384615384615,14.23076923076923,18.846153846153847,6.923076923076923,low,48.46153846153846,0.7692307692307693,,,1.0,,1.0,
437,439,50,2.0,1.0,1.0,3,24,5,328,0.85,0.85,0.15,0.5,385,108,604,51.53846153846153,1.9230769230769231,win-stay,56.15384615384615,14.23076923076923,18.846153846153847,6.923076923076923,low,48.46153846153846,0.7692307692307693,,,1.0,,1.0,
438,440,51,2.0,1.0,1.0,3,24,6,338,0.85,0.85,0.15,0.5,387,108,604,51.53846153846153,1.9230769230769231,win-stay,56.15384615384615,14.23076923076923,18.846153846153847,6.923076923076923,low,48.46153846153846,0.7692307692307693,,,1.0,,1.0,
439,441,52,2.0,1.0,0.0,3,24,7,348,0.85,0.85,0.15,0.5,421,108,604,51.53846153846153,1.9230769230769231,win-stay,56.15384615384615,14.23076923076923,18.846153846153847,6.923076923076923,low,48.46153846153846,0.7692307692307693,,,1.0,,0.0,
440,442,53,3.0,1.0,1.0,3,24,8,350,0.85,0.85,0.15,0.5,461,108,604,51.53846153846153,1.9230769230769231,lose-stay,56.15384615384615,14.23076923076923,18.846153846153847,6.923076923076923,low,48.46153846153846,0.7692307692307693,,,1.0,,1.0,
441,443,54,1.0,1.0,1.0,3,24,9,360,0.85,0.85,0.15,0.5,473,108,604,51.53846153846153,1.9230769230769231,win-stay,56.15384615384615,14.23076923076923,18.846153846153847,6.923076923076923,low,48.46153846153846,0.7692307692307693,,,1.0,,1.0,
442,444,55,1.0,1.0,1.0,3,24,10,370,0.85,0.85,0.15,0.5,581,108,604,51.53846153846153,1.9230769230769231,win-stay,56.15384615384615,14.23076923076923,18.846153846153847,6.923076923076923,low,48.46153846153846,0.7692307692307693,,,1.0,,1.0,
443,445,56,2.0,1.0,1.0,3,24,11,380,0.85,0.85,0.15,0.5,538,108,604,51.53846153846153,1.9230769230769231,win-stay,56.15384615384615,14.23076923076923,18.846153846153847,6.923076923076923,low,48.46153846153846,0.7692307692307693,,,1.0,,1.0,
444,446,57,1.0,1.0,1.0,3,24,12,390,0.85,0.85,0.15,0.5,673,108,604,51.53846153846153,1.9230769230769231,win-stay,56.15384615384615,14.23076923076923,18.846153846153847,6.923076923076923,low,48.46153846153846,0.7692307692307693,,,1.0,,1.0,
445,447,58,3.0,1.0,1.0,3,24,13,400,0.85,0.85,0.15,0.5,477,108,604,51.53846153846153,1.9230769230769231,win-stay,56.15384615384615,14.23076923076923,18.846153846153847,6.923076923076923,low,48.46153846153846,0.7692307692307693,,,1.0,,1.0,
446,448,59,3.0,1.0,1.0,3,24,14,410,0.85,0.85,0.15,0.5,404,108,604,51.53846153846153,1.9230769230769231,win-stay,56.15384615384615,14.23076923076923,18.846153846153847,6.923076923076923,low,48.46153846153846,0.7692307692307693,,,1.0,,1.0,
447,449,60,2.0,1.0,1.0,3,24,15,420,0.85,0.85,0.15,0.5,463,108,604,51.53846153846153,1.9230769230769231,win-stay,56.15384615384615,14.23076923076923,18.846153846153847,6.923076923076923,low,48.46153846153846,0.7692307692307693,,,1.0,,1.0,
448,450,61,3.0,1.0,1.0,3,24,16,430,0.85,0.85,0.15,0.5,591,108,604,51.53846153846153,1.9230769230769231,win-stay,56.15384615384615,14.23076923076923,18.846153846153847,6.923076923076923,low,48.46153846153846,0.7692307692307693,,,1.0,,1.0,
449,451,62,1.0,1.0,1.0,3,24,17,440,0.85,0.85,0.15,0.5,548,108,604,51.53846153846153,1.9230769230769231,win-stay,56.15384615384615,14.23076923076923,18.846153846153847,6.923076923076923,low,48.46153846153846,0.7692307692307693,,,1.0,,1.0,
450,452,63,2.0,1.0,1.0,3,24,18,450,0.85,0.85,0.15,0.5,544,108,604,51.53846153846153,1.9230769230769231,win-stay,56.15384615384615,14.23076923076923,18.846153846153847,6.923076923076923,low,48.46153846153846,0.7692307692307693,,,1.0,,1.0,
451,453,64,3.0,1.0,1.0,3,24,19,460,0.85,0.85,0.15,0.5,491,108,604,51.53846153846153,1.9230769230769231,win-stay,56.15384615384615,14.23076923076923,18.846153846153847,6.923076923076923,low,48.46153846153846,0.7692307692307693,,,1.0,,1.0,
452,454,65,3.0,1.0,1.0,3,24,20,470,0.85,0.85,0.15,0.5,542,108,604,51.53846153846153,1.9230769230769231,win-stay,56.15384615384615,14.23076923076923,18.846153846153847,6.923076923076923,low,48.46153846153846,0.7692307692307693,,,1.0,,1.0,
453,455,66,2.0,1.0,1.0,3,24,21,480,0.85,0.85,0.15,0.5,622,108,604,51.53846153846153,1.9230769230769231,win-stay,56.15384615384615,14.23076923076923,18.846153846153847,6.923076923076923,low,48.46153846153846,0.7692307692307693,,,1.0,,1.0,
454,456,67,1.0,1.0,1.0,3,24,22,490,0.85,0.85,0.15,0.5,1162,108,604,51.53846153846153,1.9230769230769231,win-stay,56.15384615384615,14.23076923076923,18.846153846153847,6.923076923076923,low,48.46153846153846,0.7692307692307693,,,1.0,,1.0,
455,457,68,3.0,1.0,1.0,3,24,23,500,0.85,0.85,0.15,0.5,416,108,604,51.53846153846153,1.9230769230769231,win-stay,56.15384615384615,14.23076923076923,18.846153846153847,6.923076923076923,low,48.46153846153846,0.7692307692307693,,,1.0,,1.0,
